"text","rt","key_press","block_duration","timing_post_trial","trial_id","trial_type","trial_index","time_elapsed","internal_node_id","exp_id","full_screen","focus_shifts","view_history","stimulus","possible_responses","stim_duration","trial_num","initial_rating","preTaskStim","exp_stage","correct_response","correct","stim","accuracy","final_rating","postTaskStim","condition","difference"
"<div class = bigBox><div class = welcomeBox><p class = center-block-text><font color = ""white"">Welcome to the experiment. This experiment had 3 phases and will take about 40 minutes. Press <strong>enter</strong> to begin.</font></p></div></div>","32530","13","32530","-1","instruction","poldrack-text","0","32532","0.0-0.0-0.0","go_nogo","true","0","","","","","","","","","","","","","","","",""
"","12904","","","","instruction","poldrack-instructions","1","45437","0.0-0.0-1.0","go_nogo","true","0","[{""page_index"":0,""viewing_time"":12903}]","","","","","","","","","","","","","","",""
"","4452","81","4452","-1","pre_task","poldrack-single-stim","2","49893","0.0-1.0-0.0","go_nogo","true","0","","<div class = bigBox><div class = pictureBox><img class='img.displayed' src='/static/experiments/gng_food/images/RitzBitz2.bmp'></img></div><div class = sliderbox><div class = buttonBox><div class = Button1><input type=""button"" id = ""button1"" value=""1"" onClick = ""pressSubmit(1, 81)""></div><div class = Button2><input type=""button"" id = ""button2"" value=""2"" onClick = ""pressSubmit(2, 81)""></div><div class = Button3><input type=""button"" id = ""button3"" value=""3"" onClick = ""pressSubmit(3, 81)""></div><div class = Button4><input type=""button"" id = ""button4"" value=""4"" onClick = ""pressSubmit(4, 81)""></div><div class = Button5><input type=""button"" id = ""button5"" value=""5"" onClick = ""pressSubmit(5, 81)""></div><div class = Button6><input type=""button"" id = ""button6"" value=""6"" onClick = ""pressSubmit(6, 81)""></div><div class = Button7><input type=""button"" id = ""button7"" value=""7"" onClick = ""pressSubmit(7, 81)""></div></div></div></div>","81","4452","0","6","RitzBitz2.bmp","","","","","","","","",""
"","1967","81","1967","-1","pre_task","poldrack-single-stim","3","51860","0.0-1.0-1.0","go_nogo","true","0","","<div class = bigBox><div class = pictureBox><img class='img.displayed' src='/static/experiments/gng_food/images/jollyrancheryellow.bmp'></img></div><div class = sliderbox><div class = buttonBox><div class = Button1><input type=""button"" id = ""button1"" value=""1"" onClick = ""pressSubmit(1, 81)""></div><div class = Button2><input type=""button"" id = ""button2"" value=""2"" onClick = ""pressSubmit(2, 81)""></div><div class = Button3><input type=""button"" id = ""button3"" value=""3"" onClick = ""pressSubmit(3, 81)""></div><div class = Button4><input type=""button"" id = ""button4"" value=""4"" onClick = ""pressSubmit(4, 81)""></div><div class = Button5><input type=""button"" id = ""button5"" value=""5"" onClick = ""pressSubmit(5, 81)""></div><div class = Button6><input type=""button"" id = ""button6"" value=""6"" onClick = ""pressSubmit(6, 81)""></div><div class = Button7><input type=""button"" id = ""button7"" value=""7"" onClick = ""pressSubmit(7, 81)""></div></div></div></div>","81","1967","1","1","jollyrancheryellow.bmp","","","","","","","","",""
"","2035","81","2035","-1","pre_task","poldrack-single-stim","4","53897","0.0-1.0-2.0","go_nogo","true","0","","<div class = bigBox><div class = pictureBox><img class='img.displayed' src='/static/experiments/gng_food/images/hersheymilk_several.bmp'></img></div><div class = sliderbox><div class = buttonBox><div class = Button1><input type=""button"" id = ""button1"" value=""1"" onClick = ""pressSubmit(1, 81)""></div><div class = Button2><input type=""button"" id = ""button2"" value=""2"" onClick = ""pressSubmit(2, 81)""></div><div class = Button3><input type=""button"" id = ""button3"" value=""3"" onClick = ""pressSubmit(3, 81)""></div><div class = Button4><input type=""button"" id = ""button4"" value=""4"" onClick = ""pressSubmit(4, 81)""></div><div class = Button5><input type=""button"" id = ""button5"" value=""5"" onClick = ""pressSubmit(5, 81)""></div><div class = Button6><input type=""button"" id = ""button6"" value=""6"" onClick = ""pressSubmit(6, 81)""></div><div class = Button7><input type=""button"" id = ""button7"" value=""7"" onClick = ""pressSubmit(7, 81)""></div></div></div></div>","81","2035","2","5","hersheymilk_several.bmp","","","","","","","","",""
"","1506","81","1506","-1","pre_task","poldrack-single-stim","5","55404","0.0-1.0-3.0","go_nogo","true","0","","<div class = bigBox><div class = pictureBox><img class='img.displayed' src='/static/experiments/gng_food/images/CheesyDoritos.bmp'></img></div><div class = sliderbox><div class = buttonBox><div class = Button1><input type=""button"" id = ""button1"" value=""1"" onClick = ""pressSubmit(1, 81)""></div><div class = Button2><input type=""button"" id = ""button2"" value=""2"" onClick = ""pressSubmit(2, 81)""></div><div class = Button3><input type=""button"" id = ""button3"" value=""3"" onClick = ""pressSubmit(3, 81)""></div><div class = Button4><input type=""button"" id = ""button4"" value=""4"" onClick = ""pressSubmit(4, 81)""></div><div class = Button5><input type=""button"" id = ""button5"" value=""5"" onClick = ""pressSubmit(5, 81)""></div><div class = Button6><input type=""button"" id = ""button6"" value=""6"" onClick = ""pressSubmit(6, 81)""></div><div class = Button7><input type=""button"" id = ""button7"" value=""7"" onClick = ""pressSubmit(7, 81)""></div></div></div></div>","81","1506","3","4","CheesyDoritos.bmp","","","","","","","","",""
"","1731","81","1731","-1","pre_task","poldrack-single-stim","6","57137","0.0-1.0-4.0","go_nogo","true","0","","<div class = bigBox><div class = pictureBox><img class='img.displayed' src='/static/experiments/gng_food/images/cellery.bmp'></img></div><div class = sliderbox><div class = buttonBox><div class = Button1><input type=""button"" id = ""button1"" value=""1"" onClick = ""pressSubmit(1, 81)""></div><div class = Button2><input type=""button"" id = ""button2"" value=""2"" onClick = ""pressSubmit(2, 81)""></div><div class = Button3><input type=""button"" id = ""button3"" value=""3"" onClick = ""pressSubmit(3, 81)""></div><div class = Button4><input type=""button"" id = ""button4"" value=""4"" onClick = ""pressSubmit(4, 81)""></div><div class = Button5><input type=""button"" id = ""button5"" value=""5"" onClick = ""pressSubmit(5, 81)""></div><div class = Button6><input type=""button"" id = ""button6"" value=""6"" onClick = ""pressSubmit(6, 81)""></div><div class = Button7><input type=""button"" id = ""button7"" value=""7"" onClick = ""pressSubmit(7, 81)""></div></div></div></div>","81","1731","4","4","cellery.bmp","","","","","","","","",""
"","3611","81","3611","-1","pre_task","poldrack-single-stim","7","60748","0.0-1.0-5.0","go_nogo","true","0","","<div class = bigBox><div class = pictureBox><img class='img.displayed' src='/static/experiments/gng_food/images/PowderedDonuts_small.bmp'></img></div><div class = sliderbox><div class = buttonBox><div class = Button1><input type=""button"" id = ""button1"" value=""1"" onClick = ""pressSubmit(1, 81)""></div><div class = Button2><input type=""button"" id = ""button2"" value=""2"" onClick = ""pressSubmit(2, 81)""></div><div class = Button3><input type=""button"" id = ""button3"" value=""3"" onClick = ""pressSubmit(3, 81)""></div><div class = Button4><input type=""button"" id = ""button4"" value=""4"" onClick = ""pressSubmit(4, 81)""></div><div class = Button5><input type=""button"" id = ""button5"" value=""5"" onClick = ""pressSubmit(5, 81)""></div><div class = Button6><input type=""button"" id = ""button6"" value=""6"" onClick = ""pressSubmit(6, 81)""></div><div class = Button7><input type=""button"" id = ""button7"" value=""7"" onClick = ""pressSubmit(7, 81)""></div></div></div></div>","81","3611","5","1","PowderedDonuts_small.bmp","","","","","","","","",""
"","1832","81","1832","-1","pre_task","poldrack-single-stim","8","62582","0.0-1.0-6.0","go_nogo","true","0","","<div class = bigBox><div class = pictureBox><img class='img.displayed' src='/static/experiments/gng_food/images/Twix.bmp'></img></div><div class = sliderbox><div class = buttonBox><div class = Button1><input type=""button"" id = ""button1"" value=""1"" onClick = ""pressSubmit(1, 81)""></div><div class = Button2><input type=""button"" id = ""button2"" value=""2"" onClick = ""pressSubmit(2, 81)""></div><div class = Button3><input type=""button"" id = ""button3"" value=""3"" onClick = ""pressSubmit(3, 81)""></div><div class = Button4><input type=""button"" id = ""button4"" value=""4"" onClick = ""pressSubmit(4, 81)""></div><div class = Button5><input type=""button"" id = ""button5"" value=""5"" onClick = ""pressSubmit(5, 81)""></div><div class = Button6><input type=""button"" id = ""button6"" value=""6"" onClick = ""pressSubmit(6, 81)""></div><div class = Button7><input type=""button"" id = ""button7"" value=""7"" onClick = ""pressSubmit(7, 81)""></div></div></div></div>","81","1832","6","5","Twix.bmp","","","","","","","","",""
"","1720","81","1720","-1","pre_task","poldrack-single-stim","9","64303","0.0-1.0-7.0","go_nogo","true","0","","<div class = bigBox><div class = pictureBox><img class='img.displayed' src='/static/experiments/gng_food/images/grapenerds.bmp'></img></div><div class = sliderbox><div class = buttonBox><div class = Button1><input type=""button"" id = ""button1"" value=""1"" onClick = ""pressSubmit(1, 81)""></div><div class = Button2><input type=""button"" id = ""button2"" value=""2"" onClick = ""pressSubmit(2, 81)""></div><div class = Button3><input type=""button"" id = ""button3"" value=""3"" onClick = ""pressSubmit(3, 81)""></div><div class = Button4><input type=""button"" id = ""button4"" value=""4"" onClick = ""pressSubmit(4, 81)""></div><div class = Button5><input type=""button"" id = ""button5"" value=""5"" onClick = ""pressSubmit(5, 81)""></div><div class = Button6><input type=""button"" id = ""button6"" value=""6"" onClick = ""pressSubmit(6, 81)""></div><div class = Button7><input type=""button"" id = ""button7"" value=""7"" onClick = ""pressSubmit(7, 81)""></div></div></div></div>","81","1720","7","5","grapenerds.bmp","","","","","","","","",""
"","2992","81","2992","-1","pre_task","poldrack-single-stim","10","67296","0.0-1.0-8.0","go_nogo","true","0","","<div class = bigBox><div class = pictureBox><img class='img.displayed' src='/static/experiments/gng_food/images/chocpudding.bmp'></img></div><div class = sliderbox><div class = buttonBox><div class = Button1><input type=""button"" id = ""button1"" value=""1"" onClick = ""pressSubmit(1, 81)""></div><div class = Button2><input type=""button"" id = ""button2"" value=""2"" onClick = ""pressSubmit(2, 81)""></div><div class = Button3><input type=""button"" id = ""button3"" value=""3"" onClick = ""pressSubmit(3, 81)""></div><div class = Button4><input type=""button"" id = ""button4"" value=""4"" onClick = ""pressSubmit(4, 81)""></div><div class = Button5><input type=""button"" id = ""button5"" value=""5"" onClick = ""pressSubmit(5, 81)""></div><div class = Button6><input type=""button"" id = ""button6"" value=""6"" onClick = ""pressSubmit(6, 81)""></div><div class = Button7><input type=""button"" id = ""button7"" value=""7"" onClick = ""pressSubmit(7, 81)""></div></div></div></div>","81","2992","8","2","chocpudding.bmp","","","","","","","","",""
"","1484","81","1484","-1","pre_task","poldrack-single-stim","11","68780","0.0-1.0-9.0","go_nogo","true","0","","<div class = bigBox><div class = pictureBox><img class='img.displayed' src='/static/experiments/gng_food/images/Ruffles.bmp'></img></div><div class = sliderbox><div class = buttonBox><div class = Button1><input type=""button"" id = ""button1"" value=""1"" onClick = ""pressSubmit(1, 81)""></div><div class = Button2><input type=""button"" id = ""button2"" value=""2"" onClick = ""pressSubmit(2, 81)""></div><div class = Button3><input type=""button"" id = ""button3"" value=""3"" onClick = ""pressSubmit(3, 81)""></div><div class = Button4><input type=""button"" id = ""button4"" value=""4"" onClick = ""pressSubmit(4, 81)""></div><div class = Button5><input type=""button"" id = ""button5"" value=""5"" onClick = ""pressSubmit(5, 81)""></div><div class = Button6><input type=""button"" id = ""button6"" value=""6"" onClick = ""pressSubmit(6, 81)""></div><div class = Button7><input type=""button"" id = ""button7"" value=""7"" onClick = ""pressSubmit(7, 81)""></div></div></div></div>","81","1484","9","5","Ruffles.bmp","","","","","","","","",""
"","1315","81","1315","-1","pre_task","poldrack-single-stim","12","70097","0.0-1.0-10.0","go_nogo","true","0","","<div class = bigBox><div class = pictureBox><img class='img.displayed' src='/static/experiments/gng_food/images/jollyranchergreen.bmp'></img></div><div class = sliderbox><div class = buttonBox><div class = Button1><input type=""button"" id = ""button1"" value=""1"" onClick = ""pressSubmit(1, 81)""></div><div class = Button2><input type=""button"" id = ""button2"" value=""2"" onClick = ""pressSubmit(2, 81)""></div><div class = Button3><input type=""button"" id = ""button3"" value=""3"" onClick = ""pressSubmit(3, 81)""></div><div class = Button4><input type=""button"" id = ""button4"" value=""4"" onClick = ""pressSubmit(4, 81)""></div><div class = Button5><input type=""button"" id = ""button5"" value=""5"" onClick = ""pressSubmit(5, 81)""></div><div class = Button6><input type=""button"" id = ""button6"" value=""6"" onClick = ""pressSubmit(6, 81)""></div><div class = Button7><input type=""button"" id = ""button7"" value=""7"" onClick = ""pressSubmit(7, 81)""></div></div></div></div>","81","1315","10","1","jollyranchergreen.bmp","","","","","","","","",""
"","2553","81","2553","-1","pre_task","poldrack-single-stim","13","72651","0.0-1.0-11.0","go_nogo","true","0","","<div class = bigBox><div class = pictureBox><img class='img.displayed' src='/static/experiments/gng_food/images/carrots.bmp'></img></div><div class = sliderbox><div class = buttonBox><div class = Button1><input type=""button"" id = ""button1"" value=""1"" onClick = ""pressSubmit(1, 81)""></div><div class = Button2><input type=""button"" id = ""button2"" value=""2"" onClick = ""pressSubmit(2, 81)""></div><div class = Button3><input type=""button"" id = ""button3"" value=""3"" onClick = ""pressSubmit(3, 81)""></div><div class = Button4><input type=""button"" id = ""button4"" value=""4"" onClick = ""pressSubmit(4, 81)""></div><div class = Button5><input type=""button"" id = ""button5"" value=""5"" onClick = ""pressSubmit(5, 81)""></div><div class = Button6><input type=""button"" id = ""button6"" value=""6"" onClick = ""pressSubmit(6, 81)""></div><div class = Button7><input type=""button"" id = ""button7"" value=""7"" onClick = ""pressSubmit(7, 81)""></div></div></div></div>","81","2553","11","4","carrots.bmp","","","","","","","","",""
"","1810","81","1810","-1","pre_task","poldrack-single-stim","14","74462","0.0-1.0-12.0","go_nogo","true","0","","<div class = bigBox><div class = pictureBox><img class='img.displayed' src='/static/experiments/gng_food/images/banana.bmp'></img></div><div class = sliderbox><div class = buttonBox><div class = Button1><input type=""button"" id = ""button1"" value=""1"" onClick = ""pressSubmit(1, 81)""></div><div class = Button2><input type=""button"" id = ""button2"" value=""2"" onClick = ""pressSubmit(2, 81)""></div><div class = Button3><input type=""button"" id = ""button3"" value=""3"" onClick = ""pressSubmit(3, 81)""></div><div class = Button4><input type=""button"" id = ""button4"" value=""4"" onClick = ""pressSubmit(4, 81)""></div><div class = Button5><input type=""button"" id = ""button5"" value=""5"" onClick = ""pressSubmit(5, 81)""></div><div class = Button6><input type=""button"" id = ""button6"" value=""6"" onClick = ""pressSubmit(6, 81)""></div><div class = Button7><input type=""button"" id = ""button7"" value=""7"" onClick = ""pressSubmit(7, 81)""></div></div></div></div>","81","1810","12","7","banana.bmp","","","","","","","","",""
"","2823","81","2823","-1","pre_task","poldrack-single-stim","15","77286","0.0-1.0-13.0","go_nogo","true","0","","<div class = bigBox><div class = pictureBox><img class='img.displayed' src='/static/experiments/gng_food/images/snickers.bmp'></img></div><div class = sliderbox><div class = buttonBox><div class = Button1><input type=""button"" id = ""button1"" value=""1"" onClick = ""pressSubmit(1, 81)""></div><div class = Button2><input type=""button"" id = ""button2"" value=""2"" onClick = ""pressSubmit(2, 81)""></div><div class = Button3><input type=""button"" id = ""button3"" value=""3"" onClick = ""pressSubmit(3, 81)""></div><div class = Button4><input type=""button"" id = ""button4"" value=""4"" onClick = ""pressSubmit(4, 81)""></div><div class = Button5><input type=""button"" id = ""button5"" value=""5"" onClick = ""pressSubmit(5, 81)""></div><div class = Button6><input type=""button"" id = ""button6"" value=""6"" onClick = ""pressSubmit(6, 81)""></div><div class = Button7><input type=""button"" id = ""button7"" value=""7"" onClick = ""pressSubmit(7, 81)""></div></div></div></div>","81","2823","13","5","snickers.bmp","","","","","","","","",""
"","1855","81","1855","-1","pre_task","poldrack-single-stim","16","79142","0.0-1.0-14.0","go_nogo","true","0","","<div class = bigBox><div class = pictureBox><img class='img.displayed' src='/static/experiments/gng_food/images/laysclassic.bmp'></img></div><div class = sliderbox><div class = buttonBox><div class = Button1><input type=""button"" id = ""button1"" value=""1"" onClick = ""pressSubmit(1, 81)""></div><div class = Button2><input type=""button"" id = ""button2"" value=""2"" onClick = ""pressSubmit(2, 81)""></div><div class = Button3><input type=""button"" id = ""button3"" value=""3"" onClick = ""pressSubmit(3, 81)""></div><div class = Button4><input type=""button"" id = ""button4"" value=""4"" onClick = ""pressSubmit(4, 81)""></div><div class = Button5><input type=""button"" id = ""button5"" value=""5"" onClick = ""pressSubmit(5, 81)""></div><div class = Button6><input type=""button"" id = ""button6"" value=""6"" onClick = ""pressSubmit(6, 81)""></div><div class = Button7><input type=""button"" id = ""button7"" value=""7"" onClick = ""pressSubmit(7, 81)""></div></div></div></div>","81","1855","14","2","laysclassic.bmp","","","","","","","","",""
"","1766","81","1766","-1","pre_task","poldrack-single-stim","17","80908","0.0-1.0-15.0","go_nogo","true","0","","<div class = bigBox><div class = pictureBox><img class='img.displayed' src='/static/experiments/gng_food/images/milkduds.bmp'></img></div><div class = sliderbox><div class = buttonBox><div class = Button1><input type=""button"" id = ""button1"" value=""1"" onClick = ""pressSubmit(1, 81)""></div><div class = Button2><input type=""button"" id = ""button2"" value=""2"" onClick = ""pressSubmit(2, 81)""></div><div class = Button3><input type=""button"" id = ""button3"" value=""3"" onClick = ""pressSubmit(3, 81)""></div><div class = Button4><input type=""button"" id = ""button4"" value=""4"" onClick = ""pressSubmit(4, 81)""></div><div class = Button5><input type=""button"" id = ""button5"" value=""5"" onClick = ""pressSubmit(5, 81)""></div><div class = Button6><input type=""button"" id = ""button6"" value=""6"" onClick = ""pressSubmit(6, 81)""></div><div class = Button7><input type=""button"" id = ""button7"" value=""7"" onClick = ""pressSubmit(7, 81)""></div></div></div></div>","81","1766","15","1","milkduds.bmp","","","","","","","","",""
"","1180","81","1180","-1","pre_task","poldrack-single-stim","18","82089","0.0-1.0-16.0","go_nogo","true","0","","<div class = bigBox><div class = pictureBox><img class='img.displayed' src='/static/experiments/gng_food/images/TeddyGrahamschocolate.bmp'></img></div><div class = sliderbox><div class = buttonBox><div class = Button1><input type=""button"" id = ""button1"" value=""1"" onClick = ""pressSubmit(1, 81)""></div><div class = Button2><input type=""button"" id = ""button2"" value=""2"" onClick = ""pressSubmit(2, 81)""></div><div class = Button3><input type=""button"" id = ""button3"" value=""3"" onClick = ""pressSubmit(3, 81)""></div><div class = Button4><input type=""button"" id = ""button4"" value=""4"" onClick = ""pressSubmit(4, 81)""></div><div class = Button5><input type=""button"" id = ""button5"" value=""5"" onClick = ""pressSubmit(5, 81)""></div><div class = Button6><input type=""button"" id = ""button6"" value=""6"" onClick = ""pressSubmit(6, 81)""></div><div class = Button7><input type=""button"" id = ""button7"" value=""7"" onClick = ""pressSubmit(7, 81)""></div></div></div></div>","81","1180","16","1","TeddyGrahamschocolate.bmp","","","","","","","","",""
"","798","81","798","-1","pre_task","poldrack-single-stim","19","82888","0.0-1.0-17.0","go_nogo","true","0","","<div class = bigBox><div class = pictureBox><img class='img.displayed' src='/static/experiments/gng_food/images/SnoBall.bmp'></img></div><div class = sliderbox><div class = buttonBox><div class = Button1><input type=""button"" id = ""button1"" value=""1"" onClick = ""pressSubmit(1, 81)""></div><div class = Button2><input type=""button"" id = ""button2"" value=""2"" onClick = ""pressSubmit(2, 81)""></div><div class = Button3><input type=""button"" id = ""button3"" value=""3"" onClick = ""pressSubmit(3, 81)""></div><div class = Button4><input type=""button"" id = ""button4"" value=""4"" onClick = ""pressSubmit(4, 81)""></div><div class = Button5><input type=""button"" id = ""button5"" value=""5"" onClick = ""pressSubmit(5, 81)""></div><div class = Button6><input type=""button"" id = ""button6"" value=""6"" onClick = ""pressSubmit(6, 81)""></div><div class = Button7><input type=""button"" id = ""button7"" value=""7"" onClick = ""pressSubmit(7, 81)""></div></div></div></div>","81","798","17","1","SnoBall.bmp","","","","","","","","",""
"","1506","81","1506","-1","pre_task","poldrack-single-stim","20","84396","0.0-1.0-18.0","go_nogo","true","0","","<div class = bigBox><div class = pictureBox><img class='img.displayed' src='/static/experiments/gng_food/images/bbqgoldfish.bmp'></img></div><div class = sliderbox><div class = buttonBox><div class = Button1><input type=""button"" id = ""button1"" value=""1"" onClick = ""pressSubmit(1, 81)""></div><div class = Button2><input type=""button"" id = ""button2"" value=""2"" onClick = ""pressSubmit(2, 81)""></div><div class = Button3><input type=""button"" id = ""button3"" value=""3"" onClick = ""pressSubmit(3, 81)""></div><div class = Button4><input type=""button"" id = ""button4"" value=""4"" onClick = ""pressSubmit(4, 81)""></div><div class = Button5><input type=""button"" id = ""button5"" value=""5"" onClick = ""pressSubmit(5, 81)""></div><div class = Button6><input type=""button"" id = ""button6"" value=""6"" onClick = ""pressSubmit(6, 81)""></div><div class = Button7><input type=""button"" id = ""button7"" value=""7"" onClick = ""pressSubmit(7, 81)""></div></div></div></div>","81","1506","18","6","bbqgoldfish.bmp","","","","","","","","",""
"","1585","81","1585","-1","pre_task","poldrack-single-stim","21","85982","0.0-1.0-19.0","go_nogo","true","0","","<div class = bigBox><div class = pictureBox><img class='img.displayed' src='/static/experiments/gng_food/images/chocolate_mm.bmp'></img></div><div class = sliderbox><div class = buttonBox><div class = Button1><input type=""button"" id = ""button1"" value=""1"" onClick = ""pressSubmit(1, 81)""></div><div class = Button2><input type=""button"" id = ""button2"" value=""2"" onClick = ""pressSubmit(2, 81)""></div><div class = Button3><input type=""button"" id = ""button3"" value=""3"" onClick = ""pressSubmit(3, 81)""></div><div class = Button4><input type=""button"" id = ""button4"" value=""4"" onClick = ""pressSubmit(4, 81)""></div><div class = Button5><input type=""button"" id = ""button5"" value=""5"" onClick = ""pressSubmit(5, 81)""></div><div class = Button6><input type=""button"" id = ""button6"" value=""6"" onClick = ""pressSubmit(6, 81)""></div><div class = Button7><input type=""button"" id = ""button7"" value=""7"" onClick = ""pressSubmit(7, 81)""></div></div></div></div>","81","1585","19","6","chocolate_mm.bmp","","","","","","","","",""
"","2857","81","2857","-1","pre_task","poldrack-single-stim","22","88840","0.0-1.0-20.0","go_nogo","true","0","","<div class = bigBox><div class = pictureBox><img class='img.displayed' src='/static/experiments/gng_food/images/RiceKrispyTreat_small.bmp'></img></div><div class = sliderbox><div class = buttonBox><div class = Button1><input type=""button"" id = ""button1"" value=""1"" onClick = ""pressSubmit(1, 81)""></div><div class = Button2><input type=""button"" id = ""button2"" value=""2"" onClick = ""pressSubmit(2, 81)""></div><div class = Button3><input type=""button"" id = ""button3"" value=""3"" onClick = ""pressSubmit(3, 81)""></div><div class = Button4><input type=""button"" id = ""button4"" value=""4"" onClick = ""pressSubmit(4, 81)""></div><div class = Button5><input type=""button"" id = ""button5"" value=""5"" onClick = ""pressSubmit(5, 81)""></div><div class = Button6><input type=""button"" id = ""button6"" value=""6"" onClick = ""pressSubmit(6, 81)""></div><div class = Button7><input type=""button"" id = ""button7"" value=""7"" onClick = ""pressSubmit(7, 81)""></div></div></div></div>","81","2857","20","4","RiceKrispyTreat_small.bmp","","","","","","","","",""
"","1979","81","1979","-1","pre_task","poldrack-single-stim","23","90819","0.0-1.0-21.0","go_nogo","true","0","","<div class = bigBox><div class = pictureBox><img class='img.displayed' src='/static/experiments/gng_food/images/wildberrynerds.bmp'></img></div><div class = sliderbox><div class = buttonBox><div class = Button1><input type=""button"" id = ""button1"" value=""1"" onClick = ""pressSubmit(1, 81)""></div><div class = Button2><input type=""button"" id = ""button2"" value=""2"" onClick = ""pressSubmit(2, 81)""></div><div class = Button3><input type=""button"" id = ""button3"" value=""3"" onClick = ""pressSubmit(3, 81)""></div><div class = Button4><input type=""button"" id = ""button4"" value=""4"" onClick = ""pressSubmit(4, 81)""></div><div class = Button5><input type=""button"" id = ""button5"" value=""5"" onClick = ""pressSubmit(5, 81)""></div><div class = Button6><input type=""button"" id = ""button6"" value=""6"" onClick = ""pressSubmit(6, 81)""></div><div class = Button7><input type=""button"" id = ""button7"" value=""7"" onClick = ""pressSubmit(7, 81)""></div></div></div></div>","81","1979","21","1","wildberrynerds.bmp","","","","","","","","",""
"","2823","81","2823","-1","pre_task","poldrack-single-stim","24","93643","0.0-1.0-22.0","go_nogo","true","0","","<div class = bigBox><div class = pictureBox><img class='img.displayed' src='/static/experiments/gng_food/images/Cupcakes.bmp'></img></div><div class = sliderbox><div class = buttonBox><div class = Button1><input type=""button"" id = ""button1"" value=""1"" onClick = ""pressSubmit(1, 81)""></div><div class = Button2><input type=""button"" id = ""button2"" value=""2"" onClick = ""pressSubmit(2, 81)""></div><div class = Button3><input type=""button"" id = ""button3"" value=""3"" onClick = ""pressSubmit(3, 81)""></div><div class = Button4><input type=""button"" id = ""button4"" value=""4"" onClick = ""pressSubmit(4, 81)""></div><div class = Button5><input type=""button"" id = ""button5"" value=""5"" onClick = ""pressSubmit(5, 81)""></div><div class = Button6><input type=""button"" id = ""button6"" value=""6"" onClick = ""pressSubmit(6, 81)""></div><div class = Button7><input type=""button"" id = ""button7"" value=""7"" onClick = ""pressSubmit(7, 81)""></div></div></div></div>","81","2823","22","2","Cupcakes.bmp","","","","","","","","",""
"","2237","81","2237","-1","pre_task","poldrack-single-stim","25","95882","0.0-1.0-23.0","go_nogo","true","0","","<div class = bigBox><div class = pictureBox><img class='img.displayed' src='/static/experiments/gng_food/images/keeblerfudgestripes.bmp'></img></div><div class = sliderbox><div class = buttonBox><div class = Button1><input type=""button"" id = ""button1"" value=""1"" onClick = ""pressSubmit(1, 81)""></div><div class = Button2><input type=""button"" id = ""button2"" value=""2"" onClick = ""pressSubmit(2, 81)""></div><div class = Button3><input type=""button"" id = ""button3"" value=""3"" onClick = ""pressSubmit(3, 81)""></div><div class = Button4><input type=""button"" id = ""button4"" value=""4"" onClick = ""pressSubmit(4, 81)""></div><div class = Button5><input type=""button"" id = ""button5"" value=""5"" onClick = ""pressSubmit(5, 81)""></div><div class = Button6><input type=""button"" id = ""button6"" value=""6"" onClick = ""pressSubmit(6, 81)""></div><div class = Button7><input type=""button"" id = ""button7"" value=""7"" onClick = ""pressSubmit(7, 81)""></div></div></div></div>","81","2237","23","4","keeblerfudgestripes.bmp","","","","","","","","",""
"","2069","81","2069","-1","pre_task","poldrack-single-stim","26","97952","0.0-1.0-24.0","go_nogo","true","0","","<div class = bigBox><div class = pictureBox><img class='img.displayed' src='/static/experiments/gng_food/images/Dots_one.bmp'></img></div><div class = sliderbox><div class = buttonBox><div class = Button1><input type=""button"" id = ""button1"" value=""1"" onClick = ""pressSubmit(1, 81)""></div><div class = Button2><input type=""button"" id = ""button2"" value=""2"" onClick = ""pressSubmit(2, 81)""></div><div class = Button3><input type=""button"" id = ""button3"" value=""3"" onClick = ""pressSubmit(3, 81)""></div><div class = Button4><input type=""button"" id = ""button4"" value=""4"" onClick = ""pressSubmit(4, 81)""></div><div class = Button5><input type=""button"" id = ""button5"" value=""5"" onClick = ""pressSubmit(5, 81)""></div><div class = Button6><input type=""button"" id = ""button6"" value=""6"" onClick = ""pressSubmit(6, 81)""></div><div class = Button7><input type=""button"" id = ""button7"" value=""7"" onClick = ""pressSubmit(7, 81)""></div></div></div></div>","81","2069","24","2","Dots_one.bmp","","","","","","","","",""
"","2024","81","2024","-1","pre_task","poldrack-single-stim","27","99977","0.0-1.0-25.0","go_nogo","true","0","","<div class = bigBox><div class = pictureBox><img class='img.displayed' src='/static/experiments/gng_food/images/slimfastV.bmp'></img></div><div class = sliderbox><div class = buttonBox><div class = Button1><input type=""button"" id = ""button1"" value=""1"" onClick = ""pressSubmit(1, 81)""></div><div class = Button2><input type=""button"" id = ""button2"" value=""2"" onClick = ""pressSubmit(2, 81)""></div><div class = Button3><input type=""button"" id = ""button3"" value=""3"" onClick = ""pressSubmit(3, 81)""></div><div class = Button4><input type=""button"" id = ""button4"" value=""4"" onClick = ""pressSubmit(4, 81)""></div><div class = Button5><input type=""button"" id = ""button5"" value=""5"" onClick = ""pressSubmit(5, 81)""></div><div class = Button6><input type=""button"" id = ""button6"" value=""6"" onClick = ""pressSubmit(6, 81)""></div><div class = Button7><input type=""button"" id = ""button7"" value=""7"" onClick = ""pressSubmit(7, 81)""></div></div></div></div>","81","2024","25","2","slimfastV.bmp","","","","","","","","",""
"","2023","81","2023","-1","pre_task","poldrack-single-stim","28","102002","0.0-1.0-26.0","go_nogo","true","0","","<div class = bigBox><div class = pictureBox><img class='img.displayed' src='/static/experiments/gng_food/images/Lindt_small.bmp'></img></div><div class = sliderbox><div class = buttonBox><div class = Button1><input type=""button"" id = ""button1"" value=""1"" onClick = ""pressSubmit(1, 81)""></div><div class = Button2><input type=""button"" id = ""button2"" value=""2"" onClick = ""pressSubmit(2, 81)""></div><div class = Button3><input type=""button"" id = ""button3"" value=""3"" onClick = ""pressSubmit(3, 81)""></div><div class = Button4><input type=""button"" id = ""button4"" value=""4"" onClick = ""pressSubmit(4, 81)""></div><div class = Button5><input type=""button"" id = ""button5"" value=""5"" onClick = ""pressSubmit(5, 81)""></div><div class = Button6><input type=""button"" id = ""button6"" value=""6"" onClick = ""pressSubmit(6, 81)""></div><div class = Button7><input type=""button"" id = ""button7"" value=""7"" onClick = ""pressSubmit(7, 81)""></div></div></div></div>","81","2023","26","2","Lindt_small.bmp","","","","","","","","",""
"","3183","81","3183","-1","pre_task","poldrack-single-stim","29","105186","0.0-1.0-27.0","go_nogo","true","0","","<div class = bigBox><div class = pictureBox><img class='img.displayed' src='/static/experiments/gng_food/images/wheatcrisps.bmp'></img></div><div class = sliderbox><div class = buttonBox><div class = Button1><input type=""button"" id = ""button1"" value=""1"" onClick = ""pressSubmit(1, 81)""></div><div class = Button2><input type=""button"" id = ""button2"" value=""2"" onClick = ""pressSubmit(2, 81)""></div><div class = Button3><input type=""button"" id = ""button3"" value=""3"" onClick = ""pressSubmit(3, 81)""></div><div class = Button4><input type=""button"" id = ""button4"" value=""4"" onClick = ""pressSubmit(4, 81)""></div><div class = Button5><input type=""button"" id = ""button5"" value=""5"" onClick = ""pressSubmit(5, 81)""></div><div class = Button6><input type=""button"" id = ""button6"" value=""6"" onClick = ""pressSubmit(6, 81)""></div><div class = Button7><input type=""button"" id = ""button7"" value=""7"" onClick = ""pressSubmit(7, 81)""></div></div></div></div>","81","3183","27","4","wheatcrisps.bmp","","","","","","","","",""
"","1169","81","1169","-1","pre_task","poldrack-single-stim","30","106356","0.0-1.0-28.0","go_nogo","true","0","","<div class = bigBox><div class = pictureBox><img class='img.displayed' src='/static/experiments/gng_food/images/slimjim.bmp'></img></div><div class = sliderbox><div class = buttonBox><div class = Button1><input type=""button"" id = ""button1"" value=""1"" onClick = ""pressSubmit(1, 81)""></div><div class = Button2><input type=""button"" id = ""button2"" value=""2"" onClick = ""pressSubmit(2, 81)""></div><div class = Button3><input type=""button"" id = ""button3"" value=""3"" onClick = ""pressSubmit(3, 81)""></div><div class = Button4><input type=""button"" id = ""button4"" value=""4"" onClick = ""pressSubmit(4, 81)""></div><div class = Button5><input type=""button"" id = ""button5"" value=""5"" onClick = ""pressSubmit(5, 81)""></div><div class = Button6><input type=""button"" id = ""button6"" value=""6"" onClick = ""pressSubmit(6, 81)""></div><div class = Button7><input type=""button"" id = ""button7"" value=""7"" onClick = ""pressSubmit(7, 81)""></div></div></div></div>","81","1169","28","4","slimjim.bmp","","","","","","","","",""
"","1529","81","1529","-1","pre_task","poldrack-single-stim","31","107886","0.0-1.0-29.0","go_nogo","true","0","","<div class = bigBox><div class = pictureBox><img class='img.displayed' src='/static/experiments/gng_food/images/Toberlorone.bmp'></img></div><div class = sliderbox><div class = buttonBox><div class = Button1><input type=""button"" id = ""button1"" value=""1"" onClick = ""pressSubmit(1, 81)""></div><div class = Button2><input type=""button"" id = ""button2"" value=""2"" onClick = ""pressSubmit(2, 81)""></div><div class = Button3><input type=""button"" id = ""button3"" value=""3"" onClick = ""pressSubmit(3, 81)""></div><div class = Button4><input type=""button"" id = ""button4"" value=""4"" onClick = ""pressSubmit(4, 81)""></div><div class = Button5><input type=""button"" id = ""button5"" value=""5"" onClick = ""pressSubmit(5, 81)""></div><div class = Button6><input type=""button"" id = ""button6"" value=""6"" onClick = ""pressSubmit(6, 81)""></div><div class = Button7><input type=""button"" id = ""button7"" value=""7"" onClick = ""pressSubmit(7, 81)""></div></div></div></div>","81","1529","29","6","Toberlorone.bmp","","","","","","","","",""
"","1350","81","1350","-1","pre_task","poldrack-single-stim","32","109237","0.0-1.0-30.0","go_nogo","true","0","","<div class = bigBox><div class = pictureBox><img class='img.displayed' src='/static/experiments/gng_food/images/donettesbrown.bmp'></img></div><div class = sliderbox><div class = buttonBox><div class = Button1><input type=""button"" id = ""button1"" value=""1"" onClick = ""pressSubmit(1, 81)""></div><div class = Button2><input type=""button"" id = ""button2"" value=""2"" onClick = ""pressSubmit(2, 81)""></div><div class = Button3><input type=""button"" id = ""button3"" value=""3"" onClick = ""pressSubmit(3, 81)""></div><div class = Button4><input type=""button"" id = ""button4"" value=""4"" onClick = ""pressSubmit(4, 81)""></div><div class = Button5><input type=""button"" id = ""button5"" value=""5"" onClick = ""pressSubmit(5, 81)""></div><div class = Button6><input type=""button"" id = ""button6"" value=""6"" onClick = ""pressSubmit(6, 81)""></div><div class = Button7><input type=""button"" id = ""button7"" value=""7"" onClick = ""pressSubmit(7, 81)""></div></div></div></div>","81","1350","30","2","donettesbrown.bmp","","","","","","","","",""
"","1416","81","1416","-1","pre_task","poldrack-single-stim","33","110654","0.0-1.0-31.0","go_nogo","true","0","","<div class = bigBox><div class = pictureBox><img class='img.displayed' src='/static/experiments/gng_food/images/AppleJacks.bmp'></img></div><div class = sliderbox><div class = buttonBox><div class = Button1><input type=""button"" id = ""button1"" value=""1"" onClick = ""pressSubmit(1, 81)""></div><div class = Button2><input type=""button"" id = ""button2"" value=""2"" onClick = ""pressSubmit(2, 81)""></div><div class = Button3><input type=""button"" id = ""button3"" value=""3"" onClick = ""pressSubmit(3, 81)""></div><div class = Button4><input type=""button"" id = ""button4"" value=""4"" onClick = ""pressSubmit(4, 81)""></div><div class = Button5><input type=""button"" id = ""button5"" value=""5"" onClick = ""pressSubmit(5, 81)""></div><div class = Button6><input type=""button"" id = ""button6"" value=""6"" onClick = ""pressSubmit(6, 81)""></div><div class = Button7><input type=""button"" id = ""button7"" value=""7"" onClick = ""pressSubmit(7, 81)""></div></div></div></div>","81","1416","31","1","AppleJacks.bmp","","","","","","","","",""
"","775","81","775","-1","pre_task","poldrack-single-stim","34","111430","0.0-1.0-32.0","go_nogo","true","0","","<div class = bigBox><div class = pictureBox><img class='img.displayed' src='/static/experiments/gng_food/images/FrootLoops.bmp'></img></div><div class = sliderbox><div class = buttonBox><div class = Button1><input type=""button"" id = ""button1"" value=""1"" onClick = ""pressSubmit(1, 81)""></div><div class = Button2><input type=""button"" id = ""button2"" value=""2"" onClick = ""pressSubmit(2, 81)""></div><div class = Button3><input type=""button"" id = ""button3"" value=""3"" onClick = ""pressSubmit(3, 81)""></div><div class = Button4><input type=""button"" id = ""button4"" value=""4"" onClick = ""pressSubmit(4, 81)""></div><div class = Button5><input type=""button"" id = ""button5"" value=""5"" onClick = ""pressSubmit(5, 81)""></div><div class = Button6><input type=""button"" id = ""button6"" value=""6"" onClick = ""pressSubmit(6, 81)""></div><div class = Button7><input type=""button"" id = ""button7"" value=""7"" onClick = ""pressSubmit(7, 81)""></div></div></div></div>","81","775","32","1","FrootLoops.bmp","","","","","","","","",""
"","1383","81","1383","-1","pre_task","poldrack-single-stim","35","112813","0.0-1.0-33.0","go_nogo","true","0","","<div class = bigBox><div class = pictureBox><img class='img.displayed' src='/static/experiments/gng_food/images/Cheese_PeanutButterCrackers.bmp'></img></div><div class = sliderbox><div class = buttonBox><div class = Button1><input type=""button"" id = ""button1"" value=""1"" onClick = ""pressSubmit(1, 81)""></div><div class = Button2><input type=""button"" id = ""button2"" value=""2"" onClick = ""pressSubmit(2, 81)""></div><div class = Button3><input type=""button"" id = ""button3"" value=""3"" onClick = ""pressSubmit(3, 81)""></div><div class = Button4><input type=""button"" id = ""button4"" value=""4"" onClick = ""pressSubmit(4, 81)""></div><div class = Button5><input type=""button"" id = ""button5"" value=""5"" onClick = ""pressSubmit(5, 81)""></div><div class = Button6><input type=""button"" id = ""button6"" value=""6"" onClick = ""pressSubmit(6, 81)""></div><div class = Button7><input type=""button"" id = ""button7"" value=""7"" onClick = ""pressSubmit(7, 81)""></div></div></div></div>","81","1383","33","5","Cheese_PeanutButterCrackers.bmp","","","","","","","","",""
"","2136","81","2136","-1","pre_task","poldrack-single-stim","36","114951","0.0-1.0-34.0","go_nogo","true","0","","<div class = bigBox><div class = pictureBox><img class='img.displayed' src='/static/experiments/gng_food/images/Cheetos.bmp'></img></div><div class = sliderbox><div class = buttonBox><div class = Button1><input type=""button"" id = ""button1"" value=""1"" onClick = ""pressSubmit(1, 81)""></div><div class = Button2><input type=""button"" id = ""button2"" value=""2"" onClick = ""pressSubmit(2, 81)""></div><div class = Button3><input type=""button"" id = ""button3"" value=""3"" onClick = ""pressSubmit(3, 81)""></div><div class = Button4><input type=""button"" id = ""button4"" value=""4"" onClick = ""pressSubmit(4, 81)""></div><div class = Button5><input type=""button"" id = ""button5"" value=""5"" onClick = ""pressSubmit(5, 81)""></div><div class = Button6><input type=""button"" id = ""button6"" value=""6"" onClick = ""pressSubmit(6, 81)""></div><div class = Button7><input type=""button"" id = ""button7"" value=""7"" onClick = ""pressSubmit(7, 81)""></div></div></div></div>","81","2136","34","4","Cheetos.bmp","","","","","","","","",""
"","1394","81","1394","-1","pre_task","poldrack-single-stim","37","116346","0.0-1.0-35.0","go_nogo","true","0","","<div class = bigBox><div class = pictureBox><img class='img.displayed' src='/static/experiments/gng_food/images/zingers.bmp'></img></div><div class = sliderbox><div class = buttonBox><div class = Button1><input type=""button"" id = ""button1"" value=""1"" onClick = ""pressSubmit(1, 81)""></div><div class = Button2><input type=""button"" id = ""button2"" value=""2"" onClick = ""pressSubmit(2, 81)""></div><div class = Button3><input type=""button"" id = ""button3"" value=""3"" onClick = ""pressSubmit(3, 81)""></div><div class = Button4><input type=""button"" id = ""button4"" value=""4"" onClick = ""pressSubmit(4, 81)""></div><div class = Button5><input type=""button"" id = ""button5"" value=""5"" onClick = ""pressSubmit(5, 81)""></div><div class = Button6><input type=""button"" id = ""button6"" value=""6"" onClick = ""pressSubmit(6, 81)""></div><div class = Button7><input type=""button"" id = ""button7"" value=""7"" onClick = ""pressSubmit(7, 81)""></div></div></div></div>","81","1394","35","4","zingers.bmp","","","","","","","","",""
"","933","81","933","-1","pre_task","poldrack-single-stim","38","117280","0.0-1.0-36.0","go_nogo","true","0","","<div class = bigBox><div class = pictureBox><img class='img.displayed' src='/static/experiments/gng_food/images/HoHo.bmp'></img></div><div class = sliderbox><div class = buttonBox><div class = Button1><input type=""button"" id = ""button1"" value=""1"" onClick = ""pressSubmit(1, 81)""></div><div class = Button2><input type=""button"" id = ""button2"" value=""2"" onClick = ""pressSubmit(2, 81)""></div><div class = Button3><input type=""button"" id = ""button3"" value=""3"" onClick = ""pressSubmit(3, 81)""></div><div class = Button4><input type=""button"" id = ""button4"" value=""4"" onClick = ""pressSubmit(4, 81)""></div><div class = Button5><input type=""button"" id = ""button5"" value=""5"" onClick = ""pressSubmit(5, 81)""></div><div class = Button6><input type=""button"" id = ""button6"" value=""6"" onClick = ""pressSubmit(6, 81)""></div><div class = Button7><input type=""button"" id = ""button7"" value=""7"" onClick = ""pressSubmit(7, 81)""></div></div></div></div>","81","933","36","4","HoHo.bmp","","","","","","","","",""
"","1889","81","1889","-1","pre_task","poldrack-single-stim","39","119170","0.0-1.0-37.0","go_nogo","true","0","","<div class = bigBox><div class = pictureBox><img class='img.displayed' src='/static/experiments/gng_food/images/redgrapes.bmp'></img></div><div class = sliderbox><div class = buttonBox><div class = Button1><input type=""button"" id = ""button1"" value=""1"" onClick = ""pressSubmit(1, 81)""></div><div class = Button2><input type=""button"" id = ""button2"" value=""2"" onClick = ""pressSubmit(2, 81)""></div><div class = Button3><input type=""button"" id = ""button3"" value=""3"" onClick = ""pressSubmit(3, 81)""></div><div class = Button4><input type=""button"" id = ""button4"" value=""4"" onClick = ""pressSubmit(4, 81)""></div><div class = Button5><input type=""button"" id = ""button5"" value=""5"" onClick = ""pressSubmit(5, 81)""></div><div class = Button6><input type=""button"" id = ""button6"" value=""6"" onClick = ""pressSubmit(6, 81)""></div><div class = Button7><input type=""button"" id = ""button7"" value=""7"" onClick = ""pressSubmit(7, 81)""></div></div></div></div>","81","1889","37","6","redgrapes.bmp","","","","","","","","",""
"","1383","81","1383","-1","pre_task","poldrack-single-stim","40","120554","0.0-1.0-38.0","go_nogo","true","0","","<div class = bigBox><div class = pictureBox><img class='img.displayed' src='/static/experiments/gng_food/images/jollyrancherblue.bmp'></img></div><div class = sliderbox><div class = buttonBox><div class = Button1><input type=""button"" id = ""button1"" value=""1"" onClick = ""pressSubmit(1, 81)""></div><div class = Button2><input type=""button"" id = ""button2"" value=""2"" onClick = ""pressSubmit(2, 81)""></div><div class = Button3><input type=""button"" id = ""button3"" value=""3"" onClick = ""pressSubmit(3, 81)""></div><div class = Button4><input type=""button"" id = ""button4"" value=""4"" onClick = ""pressSubmit(4, 81)""></div><div class = Button5><input type=""button"" id = ""button5"" value=""5"" onClick = ""pressSubmit(5, 81)""></div><div class = Button6><input type=""button"" id = ""button6"" value=""6"" onClick = ""pressSubmit(6, 81)""></div><div class = Button7><input type=""button"" id = ""button7"" value=""7"" onClick = ""pressSubmit(7, 81)""></div></div></div></div>","81","1383","38","1","jollyrancherblue.bmp","","","","","","","","",""
"","1855","81","1855","-1","pre_task","poldrack-single-stim","41","122410","0.0-1.0-39.0","go_nogo","true","0","","<div class = bigBox><div class = pictureBox><img class='img.displayed' src='/static/experiments/gng_food/images/PayDay.bmp'></img></div><div class = sliderbox><div class = buttonBox><div class = Button1><input type=""button"" id = ""button1"" value=""1"" onClick = ""pressSubmit(1, 81)""></div><div class = Button2><input type=""button"" id = ""button2"" value=""2"" onClick = ""pressSubmit(2, 81)""></div><div class = Button3><input type=""button"" id = ""button3"" value=""3"" onClick = ""pressSubmit(3, 81)""></div><div class = Button4><input type=""button"" id = ""button4"" value=""4"" onClick = ""pressSubmit(4, 81)""></div><div class = Button5><input type=""button"" id = ""button5"" value=""5"" onClick = ""pressSubmit(5, 81)""></div><div class = Button6><input type=""button"" id = ""button6"" value=""6"" onClick = ""pressSubmit(6, 81)""></div><div class = Button7><input type=""button"" id = ""button7"" value=""7"" onClick = ""pressSubmit(7, 81)""></div></div></div></div>","81","1855","39","2","PayDay.bmp","","","","","","","","",""
"","2609","81","2609","-1","pre_task","poldrack-single-stim","42","125020","0.0-1.0-40.0","go_nogo","true","0","","<div class = bigBox><div class = pictureBox><img class='img.displayed' src='/static/experiments/gng_food/images/wwbrownie.bmp'></img></div><div class = sliderbox><div class = buttonBox><div class = Button1><input type=""button"" id = ""button1"" value=""1"" onClick = ""pressSubmit(1, 81)""></div><div class = Button2><input type=""button"" id = ""button2"" value=""2"" onClick = ""pressSubmit(2, 81)""></div><div class = Button3><input type=""button"" id = ""button3"" value=""3"" onClick = ""pressSubmit(3, 81)""></div><div class = Button4><input type=""button"" id = ""button4"" value=""4"" onClick = ""pressSubmit(4, 81)""></div><div class = Button5><input type=""button"" id = ""button5"" value=""5"" onClick = ""pressSubmit(5, 81)""></div><div class = Button6><input type=""button"" id = ""button6"" value=""6"" onClick = ""pressSubmit(6, 81)""></div><div class = Button7><input type=""button"" id = ""button7"" value=""7"" onClick = ""pressSubmit(7, 81)""></div></div></div></div>","81","2609","40","2","wwbrownie.bmp","","","","","","","","",""
"","1450","81","1450","-1","pre_task","poldrack-single-stim","43","126471","0.0-1.0-41.0","go_nogo","true","0","","<div class = bigBox><div class = pictureBox><img class='img.displayed' src='/static/experiments/gng_food/images/PopTartsStrawberry.bmp'></img></div><div class = sliderbox><div class = buttonBox><div class = Button1><input type=""button"" id = ""button1"" value=""1"" onClick = ""pressSubmit(1, 81)""></div><div class = Button2><input type=""button"" id = ""button2"" value=""2"" onClick = ""pressSubmit(2, 81)""></div><div class = Button3><input type=""button"" id = ""button3"" value=""3"" onClick = ""pressSubmit(3, 81)""></div><div class = Button4><input type=""button"" id = ""button4"" value=""4"" onClick = ""pressSubmit(4, 81)""></div><div class = Button5><input type=""button"" id = ""button5"" value=""5"" onClick = ""pressSubmit(5, 81)""></div><div class = Button6><input type=""button"" id = ""button6"" value=""6"" onClick = ""pressSubmit(6, 81)""></div><div class = Button7><input type=""button"" id = ""button7"" value=""7"" onClick = ""pressSubmit(7, 81)""></div></div></div></div>","81","1450","41","4","PopTartsStrawberry.bmp","","","","","","","","",""
"","1506","81","1506","-1","pre_task","poldrack-single-stim","44","127979","0.0-1.0-42.0","go_nogo","true","0","","<div class = bigBox><div class = pictureBox><img class='img.displayed' src='/static/experiments/gng_food/images/FigNewton_small.bmp'></img></div><div class = sliderbox><div class = buttonBox><div class = Button1><input type=""button"" id = ""button1"" value=""1"" onClick = ""pressSubmit(1, 81)""></div><div class = Button2><input type=""button"" id = ""button2"" value=""2"" onClick = ""pressSubmit(2, 81)""></div><div class = Button3><input type=""button"" id = ""button3"" value=""3"" onClick = ""pressSubmit(3, 81)""></div><div class = Button4><input type=""button"" id = ""button4"" value=""4"" onClick = ""pressSubmit(4, 81)""></div><div class = Button5><input type=""button"" id = ""button5"" value=""5"" onClick = ""pressSubmit(5, 81)""></div><div class = Button6><input type=""button"" id = ""button6"" value=""6"" onClick = ""pressSubmit(6, 81)""></div><div class = Button7><input type=""button"" id = ""button7"" value=""7"" onClick = ""pressSubmit(7, 81)""></div></div></div></div>","81","1506","42","2","FigNewton_small.bmp","","","","","","","","",""
"","1225","81","1225","-1","pre_task","poldrack-single-stim","45","129205","0.0-1.0-43.0","go_nogo","true","0","","<div class = bigBox><div class = pictureBox><img class='img.displayed' src='/static/experiments/gng_food/images/Musketeers.bmp'></img></div><div class = sliderbox><div class = buttonBox><div class = Button1><input type=""button"" id = ""button1"" value=""1"" onClick = ""pressSubmit(1, 81)""></div><div class = Button2><input type=""button"" id = ""button2"" value=""2"" onClick = ""pressSubmit(2, 81)""></div><div class = Button3><input type=""button"" id = ""button3"" value=""3"" onClick = ""pressSubmit(3, 81)""></div><div class = Button4><input type=""button"" id = ""button4"" value=""4"" onClick = ""pressSubmit(4, 81)""></div><div class = Button5><input type=""button"" id = ""button5"" value=""5"" onClick = ""pressSubmit(5, 81)""></div><div class = Button6><input type=""button"" id = ""button6"" value=""6"" onClick = ""pressSubmit(6, 81)""></div><div class = Button7><input type=""button"" id = ""button7"" value=""7"" onClick = ""pressSubmit(7, 81)""></div></div></div></div>","81","1225","43","5","Musketeers.bmp","","","","","","","","",""
"","1619","81","1619","-1","pre_task","poldrack-single-stim","46","130825","0.0-1.0-44.0","go_nogo","true","0","","<div class = bigBox><div class = pictureBox><img class='img.displayed' src='/static/experiments/gng_food/images/strawberries.bmp'></img></div><div class = sliderbox><div class = buttonBox><div class = Button1><input type=""button"" id = ""button1"" value=""1"" onClick = ""pressSubmit(1, 81)""></div><div class = Button2><input type=""button"" id = ""button2"" value=""2"" onClick = ""pressSubmit(2, 81)""></div><div class = Button3><input type=""button"" id = ""button3"" value=""3"" onClick = ""pressSubmit(3, 81)""></div><div class = Button4><input type=""button"" id = ""button4"" value=""4"" onClick = ""pressSubmit(4, 81)""></div><div class = Button5><input type=""button"" id = ""button5"" value=""5"" onClick = ""pressSubmit(5, 81)""></div><div class = Button6><input type=""button"" id = ""button6"" value=""6"" onClick = ""pressSubmit(6, 81)""></div><div class = Button7><input type=""button"" id = ""button7"" value=""7"" onClick = ""pressSubmit(7, 81)""></div></div></div></div>","81","1619","44","6","strawberries.bmp","","","","","","","","",""
"","1945","81","1945","-1","pre_task","poldrack-single-stim","47","132771","0.0-1.0-45.0","go_nogo","true","0","","<div class = bigBox><div class = pictureBox><img class='img.displayed' src='/static/experiments/gng_food/images/hersheykisses.bmp'></img></div><div class = sliderbox><div class = buttonBox><div class = Button1><input type=""button"" id = ""button1"" value=""1"" onClick = ""pressSubmit(1, 81)""></div><div class = Button2><input type=""button"" id = ""button2"" value=""2"" onClick = ""pressSubmit(2, 81)""></div><div class = Button3><input type=""button"" id = ""button3"" value=""3"" onClick = ""pressSubmit(3, 81)""></div><div class = Button4><input type=""button"" id = ""button4"" value=""4"" onClick = ""pressSubmit(4, 81)""></div><div class = Button5><input type=""button"" id = ""button5"" value=""5"" onClick = ""pressSubmit(5, 81)""></div><div class = Button6><input type=""button"" id = ""button6"" value=""6"" onClick = ""pressSubmit(6, 81)""></div><div class = Button7><input type=""button"" id = ""button7"" value=""7"" onClick = ""pressSubmit(7, 81)""></div></div></div></div>","81","1945","45","4","hersheykisses.bmp","","","","","","","","",""
"","1372","81","1372","-1","pre_task","poldrack-single-stim","48","134144","0.0-1.0-46.0","go_nogo","true","0","","<div class = bigBox><div class = pictureBox><img class='img.displayed' src='/static/experiments/gng_food/images/Skittles.bmp'></img></div><div class = sliderbox><div class = buttonBox><div class = Button1><input type=""button"" id = ""button1"" value=""1"" onClick = ""pressSubmit(1, 81)""></div><div class = Button2><input type=""button"" id = ""button2"" value=""2"" onClick = ""pressSubmit(2, 81)""></div><div class = Button3><input type=""button"" id = ""button3"" value=""3"" onClick = ""pressSubmit(3, 81)""></div><div class = Button4><input type=""button"" id = ""button4"" value=""4"" onClick = ""pressSubmit(4, 81)""></div><div class = Button5><input type=""button"" id = ""button5"" value=""5"" onClick = ""pressSubmit(5, 81)""></div><div class = Button6><input type=""button"" id = ""button6"" value=""6"" onClick = ""pressSubmit(6, 81)""></div><div class = Button7><input type=""button"" id = ""button7"" value=""7"" onClick = ""pressSubmit(7, 81)""></div></div></div></div>","81","1372","46","1","Skittles.bmp","","","","","","","","",""
"","1596","81","1596","-1","pre_task","poldrack-single-stim","49","135741","0.0-1.0-47.0","go_nogo","true","0","","<div class = bigBox><div class = pictureBox><img class='img.displayed' src='/static/experiments/gng_food/images/Pringles.bmp'></img></div><div class = sliderbox><div class = buttonBox><div class = Button1><input type=""button"" id = ""button1"" value=""1"" onClick = ""pressSubmit(1, 81)""></div><div class = Button2><input type=""button"" id = ""button2"" value=""2"" onClick = ""pressSubmit(2, 81)""></div><div class = Button3><input type=""button"" id = ""button3"" value=""3"" onClick = ""pressSubmit(3, 81)""></div><div class = Button4><input type=""button"" id = ""button4"" value=""4"" onClick = ""pressSubmit(4, 81)""></div><div class = Button5><input type=""button"" id = ""button5"" value=""5"" onClick = ""pressSubmit(5, 81)""></div><div class = Button6><input type=""button"" id = ""button6"" value=""6"" onClick = ""pressSubmit(6, 81)""></div><div class = Button7><input type=""button"" id = ""button7"" value=""7"" onClick = ""pressSubmit(7, 81)""></div></div></div></div>","81","1596","47","5","Pringles.bmp","","","","","","","","",""
"","1168","81","1168","-1","pre_task","poldrack-single-stim","50","136911","0.0-1.0-48.0","go_nogo","true","0","","<div class = bigBox><div class = pictureBox><img class='img.displayed' src='/static/experiments/gng_food/images/ChocolateDonuts.bmp'></img></div><div class = sliderbox><div class = buttonBox><div class = Button1><input type=""button"" id = ""button1"" value=""1"" onClick = ""pressSubmit(1, 81)""></div><div class = Button2><input type=""button"" id = ""button2"" value=""2"" onClick = ""pressSubmit(2, 81)""></div><div class = Button3><input type=""button"" id = ""button3"" value=""3"" onClick = ""pressSubmit(3, 81)""></div><div class = Button4><input type=""button"" id = ""button4"" value=""4"" onClick = ""pressSubmit(4, 81)""></div><div class = Button5><input type=""button"" id = ""button5"" value=""5"" onClick = ""pressSubmit(5, 81)""></div><div class = Button6><input type=""button"" id = ""button6"" value=""6"" onClick = ""pressSubmit(6, 81)""></div><div class = Button7><input type=""button"" id = ""button7"" value=""7"" onClick = ""pressSubmit(7, 81)""></div></div></div></div>","81","1168","48","2","ChocolateDonuts.bmp","","","","","","","","",""
"","1631","81","1631","-1","pre_task","poldrack-single-stim","51","138542","0.0-1.0-49.0","go_nogo","true","0","","<div class = bigBox><div class = pictureBox><img class='img.displayed' src='/static/experiments/gng_food/images/KitKat_small.bmp'></img></div><div class = sliderbox><div class = buttonBox><div class = Button1><input type=""button"" id = ""button1"" value=""1"" onClick = ""pressSubmit(1, 81)""></div><div class = Button2><input type=""button"" id = ""button2"" value=""2"" onClick = ""pressSubmit(2, 81)""></div><div class = Button3><input type=""button"" id = ""button3"" value=""3"" onClick = ""pressSubmit(3, 81)""></div><div class = Button4><input type=""button"" id = ""button4"" value=""4"" onClick = ""pressSubmit(4, 81)""></div><div class = Button5><input type=""button"" id = ""button5"" value=""5"" onClick = ""pressSubmit(5, 81)""></div><div class = Button6><input type=""button"" id = ""button6"" value=""6"" onClick = ""pressSubmit(6, 81)""></div><div class = Button7><input type=""button"" id = ""button7"" value=""7"" onClick = ""pressSubmit(7, 81)""></div></div></div></div>","81","1631","49","5","KitKat_small.bmp","","","","","","","","",""
"","1686","81","1686","-1","pre_task","poldrack-single-stim","52","140230","0.0-1.0-50.0","go_nogo","true","0","","<div class = bigBox><div class = pictureBox><img class='img.displayed' src='/static/experiments/gng_food/images/slimfastC.bmp'></img></div><div class = sliderbox><div class = buttonBox><div class = Button1><input type=""button"" id = ""button1"" value=""1"" onClick = ""pressSubmit(1, 81)""></div><div class = Button2><input type=""button"" id = ""button2"" value=""2"" onClick = ""pressSubmit(2, 81)""></div><div class = Button3><input type=""button"" id = ""button3"" value=""3"" onClick = ""pressSubmit(3, 81)""></div><div class = Button4><input type=""button"" id = ""button4"" value=""4"" onClick = ""pressSubmit(4, 81)""></div><div class = Button5><input type=""button"" id = ""button5"" value=""5"" onClick = ""pressSubmit(5, 81)""></div><div class = Button6><input type=""button"" id = ""button6"" value=""6"" onClick = ""pressSubmit(6, 81)""></div><div class = Button7><input type=""button"" id = ""button7"" value=""7"" onClick = ""pressSubmit(7, 81)""></div></div></div></div>","81","1686","50","5","slimfastC.bmp","","","","","","","","",""
"","4117","81","4117","-1","pre_task","poldrack-single-stim","53","144347","0.0-1.0-51.0","go_nogo","true","0","","<div class = bigBox><div class = pictureBox><img class='img.displayed' src='/static/experiments/gng_food/images/icecreamsandwich.bmp'></img></div><div class = sliderbox><div class = buttonBox><div class = Button1><input type=""button"" id = ""button1"" value=""1"" onClick = ""pressSubmit(1, 81)""></div><div class = Button2><input type=""button"" id = ""button2"" value=""2"" onClick = ""pressSubmit(2, 81)""></div><div class = Button3><input type=""button"" id = ""button3"" value=""3"" onClick = ""pressSubmit(3, 81)""></div><div class = Button4><input type=""button"" id = ""button4"" value=""4"" onClick = ""pressSubmit(4, 81)""></div><div class = Button5><input type=""button"" id = ""button5"" value=""5"" onClick = ""pressSubmit(5, 81)""></div><div class = Button6><input type=""button"" id = ""button6"" value=""6"" onClick = ""pressSubmit(6, 81)""></div><div class = Button7><input type=""button"" id = ""button7"" value=""7"" onClick = ""pressSubmit(7, 81)""></div></div></div></div>","81","4117","51","5","icecreamsandwich.bmp","","","","","","","","",""
"","876","81","876","-1","pre_task","poldrack-single-stim","54","145225","0.0-1.0-52.0","go_nogo","true","0","","<div class = bigBox><div class = pictureBox><img class='img.displayed' src='/static/experiments/gng_food/images/keeblerrainbow.bmp'></img></div><div class = sliderbox><div class = buttonBox><div class = Button1><input type=""button"" id = ""button1"" value=""1"" onClick = ""pressSubmit(1, 81)""></div><div class = Button2><input type=""button"" id = ""button2"" value=""2"" onClick = ""pressSubmit(2, 81)""></div><div class = Button3><input type=""button"" id = ""button3"" value=""3"" onClick = ""pressSubmit(3, 81)""></div><div class = Button4><input type=""button"" id = ""button4"" value=""4"" onClick = ""pressSubmit(4, 81)""></div><div class = Button5><input type=""button"" id = ""button5"" value=""5"" onClick = ""pressSubmit(5, 81)""></div><div class = Button6><input type=""button"" id = ""button6"" value=""6"" onClick = ""pressSubmit(6, 81)""></div><div class = Button7><input type=""button"" id = ""button7"" value=""7"" onClick = ""pressSubmit(7, 81)""></div></div></div></div>","81","876","52","5","keeblerrainbow.bmp","","","","","","","","",""
"","989","81","989","-1","pre_task","poldrack-single-stim","55","146215","0.0-1.0-53.0","go_nogo","true","0","","<div class = bigBox><div class = pictureBox><img class='img.displayed' src='/static/experiments/gng_food/images/brocollincauliflower.bmp'></img></div><div class = sliderbox><div class = buttonBox><div class = Button1><input type=""button"" id = ""button1"" value=""1"" onClick = ""pressSubmit(1, 81)""></div><div class = Button2><input type=""button"" id = ""button2"" value=""2"" onClick = ""pressSubmit(2, 81)""></div><div class = Button3><input type=""button"" id = ""button3"" value=""3"" onClick = ""pressSubmit(3, 81)""></div><div class = Button4><input type=""button"" id = ""button4"" value=""4"" onClick = ""pressSubmit(4, 81)""></div><div class = Button5><input type=""button"" id = ""button5"" value=""5"" onClick = ""pressSubmit(5, 81)""></div><div class = Button6><input type=""button"" id = ""button6"" value=""6"" onClick = ""pressSubmit(6, 81)""></div><div class = Button7><input type=""button"" id = ""button7"" value=""7"" onClick = ""pressSubmit(7, 81)""></div></div></div></div>","81","989","53","5","brocollincauliflower.bmp","","","","","","","","",""
"","1406","81","1406","-1","pre_task","poldrack-single-stim","56","147621","0.0-1.0-54.0","go_nogo","true","0","","<div class = bigBox><div class = pictureBox><img class='img.displayed' src='/static/experiments/gng_food/images/sbcrackers.bmp'></img></div><div class = sliderbox><div class = buttonBox><div class = Button1><input type=""button"" id = ""button1"" value=""1"" onClick = ""pressSubmit(1, 81)""></div><div class = Button2><input type=""button"" id = ""button2"" value=""2"" onClick = ""pressSubmit(2, 81)""></div><div class = Button3><input type=""button"" id = ""button3"" value=""3"" onClick = ""pressSubmit(3, 81)""></div><div class = Button4><input type=""button"" id = ""button4"" value=""4"" onClick = ""pressSubmit(4, 81)""></div><div class = Button5><input type=""button"" id = ""button5"" value=""5"" onClick = ""pressSubmit(5, 81)""></div><div class = Button6><input type=""button"" id = ""button6"" value=""6"" onClick = ""pressSubmit(6, 81)""></div><div class = Button7><input type=""button"" id = ""button7"" value=""7"" onClick = ""pressSubmit(7, 81)""></div></div></div></div>","81","1406","54","5","sbcrackers.bmp","","","","","","","","",""
"","1596","81","1596","-1","pre_task","poldrack-single-stim","57","149219","0.0-1.0-55.0","go_nogo","true","0","","<div class = bigBox><div class = pictureBox><img class='img.displayed' src='/static/experiments/gng_food/images/TeddyGrahamsCinnamon.bmp'></img></div><div class = sliderbox><div class = buttonBox><div class = Button1><input type=""button"" id = ""button1"" value=""1"" onClick = ""pressSubmit(1, 81)""></div><div class = Button2><input type=""button"" id = ""button2"" value=""2"" onClick = ""pressSubmit(2, 81)""></div><div class = Button3><input type=""button"" id = ""button3"" value=""3"" onClick = ""pressSubmit(3, 81)""></div><div class = Button4><input type=""button"" id = ""button4"" value=""4"" onClick = ""pressSubmit(4, 81)""></div><div class = Button5><input type=""button"" id = ""button5"" value=""5"" onClick = ""pressSubmit(5, 81)""></div><div class = Button6><input type=""button"" id = ""button6"" value=""6"" onClick = ""pressSubmit(6, 81)""></div><div class = Button7><input type=""button"" id = ""button7"" value=""7"" onClick = ""pressSubmit(7, 81)""></div></div></div></div>","81","1596","55","2","TeddyGrahamsCinnamon.bmp","","","","","","","","",""
"","2092","81","2092","-1","pre_task","poldrack-single-stim","58","151311","0.0-1.0-56.0","go_nogo","true","0","","<div class = bigBox><div class = pictureBox><img class='img.displayed' src='/static/experiments/gng_food/images/PopTartsCinnamon.bmp'></img></div><div class = sliderbox><div class = buttonBox><div class = Button1><input type=""button"" id = ""button1"" value=""1"" onClick = ""pressSubmit(1, 81)""></div><div class = Button2><input type=""button"" id = ""button2"" value=""2"" onClick = ""pressSubmit(2, 81)""></div><div class = Button3><input type=""button"" id = ""button3"" value=""3"" onClick = ""pressSubmit(3, 81)""></div><div class = Button4><input type=""button"" id = ""button4"" value=""4"" onClick = ""pressSubmit(4, 81)""></div><div class = Button5><input type=""button"" id = ""button5"" value=""5"" onClick = ""pressSubmit(5, 81)""></div><div class = Button6><input type=""button"" id = ""button6"" value=""6"" onClick = ""pressSubmit(6, 81)""></div><div class = Button7><input type=""button"" id = ""button7"" value=""7"" onClick = ""pressSubmit(7, 81)""></div></div></div></div>","81","2092","56","4","PopTartsCinnamon.bmp","","","","","","","","",""
"","1811","81","1811","-1","pre_task","poldrack-single-stim","59","153122","0.0-1.0-57.0","go_nogo","true","0","","<div class = bigBox><div class = pictureBox><img class='img.displayed' src='/static/experiments/gng_food/images/MrGoodbar.bmp'></img></div><div class = sliderbox><div class = buttonBox><div class = Button1><input type=""button"" id = ""button1"" value=""1"" onClick = ""pressSubmit(1, 81)""></div><div class = Button2><input type=""button"" id = ""button2"" value=""2"" onClick = ""pressSubmit(2, 81)""></div><div class = Button3><input type=""button"" id = ""button3"" value=""3"" onClick = ""pressSubmit(3, 81)""></div><div class = Button4><input type=""button"" id = ""button4"" value=""4"" onClick = ""pressSubmit(4, 81)""></div><div class = Button5><input type=""button"" id = ""button5"" value=""5"" onClick = ""pressSubmit(5, 81)""></div><div class = Button6><input type=""button"" id = ""button6"" value=""6"" onClick = ""pressSubmit(6, 81)""></div><div class = Button7><input type=""button"" id = ""button7"" value=""7"" onClick = ""pressSubmit(7, 81)""></div></div></div></div>","81","1811","57","5","MrGoodbar.bmp","","","","","","","","",""
"","1844","81","1844","-1","pre_task","poldrack-single-stim","60","154968","0.0-1.0-58.0","go_nogo","true","0","","<div class = bigBox><div class = pictureBox><img class='img.displayed' src='/static/experiments/gng_food/images/Whatchamacallit.bmp'></img></div><div class = sliderbox><div class = buttonBox><div class = Button1><input type=""button"" id = ""button1"" value=""1"" onClick = ""pressSubmit(1, 81)""></div><div class = Button2><input type=""button"" id = ""button2"" value=""2"" onClick = ""pressSubmit(2, 81)""></div><div class = Button3><input type=""button"" id = ""button3"" value=""3"" onClick = ""pressSubmit(3, 81)""></div><div class = Button4><input type=""button"" id = ""button4"" value=""4"" onClick = ""pressSubmit(4, 81)""></div><div class = Button5><input type=""button"" id = ""button5"" value=""5"" onClick = ""pressSubmit(5, 81)""></div><div class = Button6><input type=""button"" id = ""button6"" value=""6"" onClick = ""pressSubmit(6, 81)""></div><div class = Button7><input type=""button"" id = ""button7"" value=""7"" onClick = ""pressSubmit(7, 81)""></div></div></div></div>","81","1844","58","4","Whatchamacallit.bmp","","","","","","","","",""
"","2024","81","2024","-1","pre_task","poldrack-single-stim","61","156993","0.0-1.0-59.0","go_nogo","true","0","","<div class = bigBox><div class = pictureBox><img class='img.displayed' src='/static/experiments/gng_food/images/BabyRuth.bmp'></img></div><div class = sliderbox><div class = buttonBox><div class = Button1><input type=""button"" id = ""button1"" value=""1"" onClick = ""pressSubmit(1, 81)""></div><div class = Button2><input type=""button"" id = ""button2"" value=""2"" onClick = ""pressSubmit(2, 81)""></div><div class = Button3><input type=""button"" id = ""button3"" value=""3"" onClick = ""pressSubmit(3, 81)""></div><div class = Button4><input type=""button"" id = ""button4"" value=""4"" onClick = ""pressSubmit(4, 81)""></div><div class = Button5><input type=""button"" id = ""button5"" value=""5"" onClick = ""pressSubmit(5, 81)""></div><div class = Button6><input type=""button"" id = ""button6"" value=""6"" onClick = ""pressSubmit(6, 81)""></div><div class = Button7><input type=""button"" id = ""button7"" value=""7"" onClick = ""pressSubmit(7, 81)""></div></div></div></div>","81","2024","59","3","BabyRuth.bmp","","","","","","","","",""
"","1799","81","1799","-1","pre_task","poldrack-single-stim","62","158793","0.0-1.0-60.0","go_nogo","true","0","","<div class = bigBox><div class = pictureBox><img class='img.displayed' src='/static/experiments/gng_food/images/WheatThins.bmp'></img></div><div class = sliderbox><div class = buttonBox><div class = Button1><input type=""button"" id = ""button1"" value=""1"" onClick = ""pressSubmit(1, 81)""></div><div class = Button2><input type=""button"" id = ""button2"" value=""2"" onClick = ""pressSubmit(2, 81)""></div><div class = Button3><input type=""button"" id = ""button3"" value=""3"" onClick = ""pressSubmit(3, 81)""></div><div class = Button4><input type=""button"" id = ""button4"" value=""4"" onClick = ""pressSubmit(4, 81)""></div><div class = Button5><input type=""button"" id = ""button5"" value=""5"" onClick = ""pressSubmit(5, 81)""></div><div class = Button6><input type=""button"" id = ""button6"" value=""6"" onClick = ""pressSubmit(6, 81)""></div><div class = Button7><input type=""button"" id = ""button7"" value=""7"" onClick = ""pressSubmit(7, 81)""></div></div></div></div>","81","1799","60","4","WheatThins.bmp","","","","","","","","",""
"","1788","81","1788","-1","pre_task","poldrack-single-stim","63","160582","0.0-1.0-61.0","go_nogo","true","0","","<div class = bigBox><div class = pictureBox><img class='img.displayed' src='/static/experiments/gng_food/images/PeanutMMs.bmp'></img></div><div class = sliderbox><div class = buttonBox><div class = Button1><input type=""button"" id = ""button1"" value=""1"" onClick = ""pressSubmit(1, 81)""></div><div class = Button2><input type=""button"" id = ""button2"" value=""2"" onClick = ""pressSubmit(2, 81)""></div><div class = Button3><input type=""button"" id = ""button3"" value=""3"" onClick = ""pressSubmit(3, 81)""></div><div class = Button4><input type=""button"" id = ""button4"" value=""4"" onClick = ""pressSubmit(4, 81)""></div><div class = Button5><input type=""button"" id = ""button5"" value=""5"" onClick = ""pressSubmit(5, 81)""></div><div class = Button6><input type=""button"" id = ""button6"" value=""6"" onClick = ""pressSubmit(6, 81)""></div><div class = Button7><input type=""button"" id = ""button7"" value=""7"" onClick = ""pressSubmit(7, 81)""></div></div></div></div>","81","1788","61","5","PeanutMMs.bmp","","","","","","","","",""
"","2519","81","2519","-1","pre_task","poldrack-single-stim","64","163101","0.0-1.0-62.0","go_nogo","true","0","","<div class = bigBox><div class = pictureBox><img class='img.displayed' src='/static/experiments/gng_food/images/grannysmith.bmp'></img></div><div class = sliderbox><div class = buttonBox><div class = Button1><input type=""button"" id = ""button1"" value=""1"" onClick = ""pressSubmit(1, 81)""></div><div class = Button2><input type=""button"" id = ""button2"" value=""2"" onClick = ""pressSubmit(2, 81)""></div><div class = Button3><input type=""button"" id = ""button3"" value=""3"" onClick = ""pressSubmit(3, 81)""></div><div class = Button4><input type=""button"" id = ""button4"" value=""4"" onClick = ""pressSubmit(4, 81)""></div><div class = Button5><input type=""button"" id = ""button5"" value=""5"" onClick = ""pressSubmit(5, 81)""></div><div class = Button6><input type=""button"" id = ""button6"" value=""6"" onClick = ""pressSubmit(6, 81)""></div><div class = Button7><input type=""button"" id = ""button7"" value=""7"" onClick = ""pressSubmit(7, 81)""></div></div></div></div>","81","2519","62","3","grannysmith.bmp","","","","","","","","",""
"","2372","81","2372","-1","pre_task","poldrack-single-stim","65","165475","0.0-1.0-63.0","go_nogo","true","0","","<div class = bigBox><div class = pictureBox><img class='img.displayed' src='/static/experiments/gng_food/images/Sourpatch.bmp'></img></div><div class = sliderbox><div class = buttonBox><div class = Button1><input type=""button"" id = ""button1"" value=""1"" onClick = ""pressSubmit(1, 81)""></div><div class = Button2><input type=""button"" id = ""button2"" value=""2"" onClick = ""pressSubmit(2, 81)""></div><div class = Button3><input type=""button"" id = ""button3"" value=""3"" onClick = ""pressSubmit(3, 81)""></div><div class = Button4><input type=""button"" id = ""button4"" value=""4"" onClick = ""pressSubmit(4, 81)""></div><div class = Button5><input type=""button"" id = ""button5"" value=""5"" onClick = ""pressSubmit(5, 81)""></div><div class = Button6><input type=""button"" id = ""button6"" value=""6"" onClick = ""pressSubmit(6, 81)""></div><div class = Button7><input type=""button"" id = ""button7"" value=""7"" onClick = ""pressSubmit(7, 81)""></div></div></div></div>","81","2372","63","3","Sourpatch.bmp","","","","","","","","",""
"","1607","81","1607","-1","pre_task","poldrack-single-stim","66","167084","0.0-1.0-64.0","go_nogo","true","0","","<div class = bigBox><div class = pictureBox><img class='img.displayed' src='/static/experiments/gng_food/images/pizza.bmp'></img></div><div class = sliderbox><div class = buttonBox><div class = Button1><input type=""button"" id = ""button1"" value=""1"" onClick = ""pressSubmit(1, 81)""></div><div class = Button2><input type=""button"" id = ""button2"" value=""2"" onClick = ""pressSubmit(2, 81)""></div><div class = Button3><input type=""button"" id = ""button3"" value=""3"" onClick = ""pressSubmit(3, 81)""></div><div class = Button4><input type=""button"" id = ""button4"" value=""4"" onClick = ""pressSubmit(4, 81)""></div><div class = Button5><input type=""button"" id = ""button5"" value=""5"" onClick = ""pressSubmit(5, 81)""></div><div class = Button6><input type=""button"" id = ""button6"" value=""6"" onClick = ""pressSubmit(6, 81)""></div><div class = Button7><input type=""button"" id = ""button7"" value=""7"" onClick = ""pressSubmit(7, 81)""></div></div></div></div>","81","1607","64","3","pizza.bmp","","","","","","","","",""
"","1460","81","1460","-1","pre_task","poldrack-single-stim","67","168546","0.0-1.0-65.0","go_nogo","true","0","","<div class = bigBox><div class = pictureBox><img class='img.displayed' src='/static/experiments/gng_food/images/haagendaas.bmp'></img></div><div class = sliderbox><div class = buttonBox><div class = Button1><input type=""button"" id = ""button1"" value=""1"" onClick = ""pressSubmit(1, 81)""></div><div class = Button2><input type=""button"" id = ""button2"" value=""2"" onClick = ""pressSubmit(2, 81)""></div><div class = Button3><input type=""button"" id = ""button3"" value=""3"" onClick = ""pressSubmit(3, 81)""></div><div class = Button4><input type=""button"" id = ""button4"" value=""4"" onClick = ""pressSubmit(4, 81)""></div><div class = Button5><input type=""button"" id = ""button5"" value=""5"" onClick = ""pressSubmit(5, 81)""></div><div class = Button6><input type=""button"" id = ""button6"" value=""6"" onClick = ""pressSubmit(6, 81)""></div><div class = Button7><input type=""button"" id = ""button7"" value=""7"" onClick = ""pressSubmit(7, 81)""></div></div></div></div>","81","1460","65","6","haagendaas.bmp","","","","","","","","",""
"","1350","81","1350","-1","pre_task","poldrack-single-stim","68","169897","0.0-1.0-66.0","go_nogo","true","0","","<div class = bigBox><div class = pictureBox><img class='img.displayed' src='/static/experiments/gng_food/images/TootsieRolls.bmp'></img></div><div class = sliderbox><div class = buttonBox><div class = Button1><input type=""button"" id = ""button1"" value=""1"" onClick = ""pressSubmit(1, 81)""></div><div class = Button2><input type=""button"" id = ""button2"" value=""2"" onClick = ""pressSubmit(2, 81)""></div><div class = Button3><input type=""button"" id = ""button3"" value=""3"" onClick = ""pressSubmit(3, 81)""></div><div class = Button4><input type=""button"" id = ""button4"" value=""4"" onClick = ""pressSubmit(4, 81)""></div><div class = Button5><input type=""button"" id = ""button5"" value=""5"" onClick = ""pressSubmit(5, 81)""></div><div class = Button6><input type=""button"" id = ""button6"" value=""6"" onClick = ""pressSubmit(6, 81)""></div><div class = Button7><input type=""button"" id = ""button7"" value=""7"" onClick = ""pressSubmit(7, 81)""></div></div></div></div>","81","1350","66","1","TootsieRolls.bmp","","","","","","","","",""
"","1518","81","1518","-1","pre_task","poldrack-single-stim","69","171415","0.0-1.0-67.0","go_nogo","true","0","","<div class = bigBox><div class = pictureBox><img class='img.displayed' src='/static/experiments/gng_food/images/orange.bmp'></img></div><div class = sliderbox><div class = buttonBox><div class = Button1><input type=""button"" id = ""button1"" value=""1"" onClick = ""pressSubmit(1, 81)""></div><div class = Button2><input type=""button"" id = ""button2"" value=""2"" onClick = ""pressSubmit(2, 81)""></div><div class = Button3><input type=""button"" id = ""button3"" value=""3"" onClick = ""pressSubmit(3, 81)""></div><div class = Button4><input type=""button"" id = ""button4"" value=""4"" onClick = ""pressSubmit(4, 81)""></div><div class = Button5><input type=""button"" id = ""button5"" value=""5"" onClick = ""pressSubmit(5, 81)""></div><div class = Button6><input type=""button"" id = ""button6"" value=""6"" onClick = ""pressSubmit(6, 81)""></div><div class = Button7><input type=""button"" id = ""button7"" value=""7"" onClick = ""pressSubmit(7, 81)""></div></div></div></div>","81","1518","67","5","orange.bmp","","","","","","","","",""
"","2181","81","2181","-1","pre_task","poldrack-single-stim","70","173598","0.0-1.0-68.0","go_nogo","true","0","","<div class = bigBox><div class = pictureBox><img class='img.displayed' src='/static/experiments/gng_food/images/ApplePie.bmp'></img></div><div class = sliderbox><div class = buttonBox><div class = Button1><input type=""button"" id = ""button1"" value=""1"" onClick = ""pressSubmit(1, 81)""></div><div class = Button2><input type=""button"" id = ""button2"" value=""2"" onClick = ""pressSubmit(2, 81)""></div><div class = Button3><input type=""button"" id = ""button3"" value=""3"" onClick = ""pressSubmit(3, 81)""></div><div class = Button4><input type=""button"" id = ""button4"" value=""4"" onClick = ""pressSubmit(4, 81)""></div><div class = Button5><input type=""button"" id = ""button5"" value=""5"" onClick = ""pressSubmit(5, 81)""></div><div class = Button6><input type=""button"" id = ""button6"" value=""6"" onClick = ""pressSubmit(6, 81)""></div><div class = Button7><input type=""button"" id = ""button7"" value=""7"" onClick = ""pressSubmit(7, 81)""></div></div></div></div>","81","2181","68","2","ApplePie.bmp","","","","","","","","",""
"","1754","81","1754","-1","pre_task","poldrack-single-stim","71","175353","0.0-1.0-69.0","go_nogo","true","0","","<div class = bigBox><div class = pictureBox><img class='img.displayed' src='/static/experiments/gng_food/images/whitegrapes.bmp'></img></div><div class = sliderbox><div class = buttonBox><div class = Button1><input type=""button"" id = ""button1"" value=""1"" onClick = ""pressSubmit(1, 81)""></div><div class = Button2><input type=""button"" id = ""button2"" value=""2"" onClick = ""pressSubmit(2, 81)""></div><div class = Button3><input type=""button"" id = ""button3"" value=""3"" onClick = ""pressSubmit(3, 81)""></div><div class = Button4><input type=""button"" id = ""button4"" value=""4"" onClick = ""pressSubmit(4, 81)""></div><div class = Button5><input type=""button"" id = ""button5"" value=""5"" onClick = ""pressSubmit(5, 81)""></div><div class = Button6><input type=""button"" id = ""button6"" value=""6"" onClick = ""pressSubmit(6, 81)""></div><div class = Button7><input type=""button"" id = ""button7"" value=""7"" onClick = ""pressSubmit(7, 81)""></div></div></div></div>","81","1754","69","5","whitegrapes.bmp","","","","","","","","",""
"","1731","81","1731","-1","pre_task","poldrack-single-stim","72","177085","0.0-1.0-70.0","go_nogo","true","0","","<div class = bigBox><div class = pictureBox><img class='img.displayed' src='/static/experiments/gng_food/images/Reeses.bmp'></img></div><div class = sliderbox><div class = buttonBox><div class = Button1><input type=""button"" id = ""button1"" value=""1"" onClick = ""pressSubmit(1, 81)""></div><div class = Button2><input type=""button"" id = ""button2"" value=""2"" onClick = ""pressSubmit(2, 81)""></div><div class = Button3><input type=""button"" id = ""button3"" value=""3"" onClick = ""pressSubmit(3, 81)""></div><div class = Button4><input type=""button"" id = ""button4"" value=""4"" onClick = ""pressSubmit(4, 81)""></div><div class = Button5><input type=""button"" id = ""button5"" value=""5"" onClick = ""pressSubmit(5, 81)""></div><div class = Button6><input type=""button"" id = ""button6"" value=""6"" onClick = ""pressSubmit(6, 81)""></div><div class = Button7><input type=""button"" id = ""button7"" value=""7"" onClick = ""pressSubmit(7, 81)""></div></div></div></div>","81","1731","70","4","Reeses.bmp","","","","","","","","",""
"","2250","81","2250","-1","pre_task","poldrack-single-stim","73","179335","0.0-1.0-71.0","go_nogo","true","0","","<div class = bigBox><div class = pictureBox><img class='img.displayed' src='/static/experiments/gng_food/images/SourSkittles.bmp'></img></div><div class = sliderbox><div class = buttonBox><div class = Button1><input type=""button"" id = ""button1"" value=""1"" onClick = ""pressSubmit(1, 81)""></div><div class = Button2><input type=""button"" id = ""button2"" value=""2"" onClick = ""pressSubmit(2, 81)""></div><div class = Button3><input type=""button"" id = ""button3"" value=""3"" onClick = ""pressSubmit(3, 81)""></div><div class = Button4><input type=""button"" id = ""button4"" value=""4"" onClick = ""pressSubmit(4, 81)""></div><div class = Button5><input type=""button"" id = ""button5"" value=""5"" onClick = ""pressSubmit(5, 81)""></div><div class = Button6><input type=""button"" id = ""button6"" value=""6"" onClick = ""pressSubmit(6, 81)""></div><div class = Button7><input type=""button"" id = ""button7"" value=""7"" onClick = ""pressSubmit(7, 81)""></div></div></div></div>","81","2250","71","1","SourSkittles.bmp","","","","","","","","",""
"","1326","81","1326","-1","pre_task","poldrack-single-stim","74","180663","0.0-1.0-72.0","go_nogo","true","0","","<div class = bigBox><div class = pictureBox><img class='img.displayed' src='/static/experiments/gng_food/images/milano.bmp'></img></div><div class = sliderbox><div class = buttonBox><div class = Button1><input type=""button"" id = ""button1"" value=""1"" onClick = ""pressSubmit(1, 81)""></div><div class = Button2><input type=""button"" id = ""button2"" value=""2"" onClick = ""pressSubmit(2, 81)""></div><div class = Button3><input type=""button"" id = ""button3"" value=""3"" onClick = ""pressSubmit(3, 81)""></div><div class = Button4><input type=""button"" id = ""button4"" value=""4"" onClick = ""pressSubmit(4, 81)""></div><div class = Button5><input type=""button"" id = ""button5"" value=""5"" onClick = ""pressSubmit(5, 81)""></div><div class = Button6><input type=""button"" id = ""button6"" value=""6"" onClick = ""pressSubmit(6, 81)""></div><div class = Button7><input type=""button"" id = ""button7"" value=""7"" onClick = ""pressSubmit(7, 81)""></div></div></div></div>","81","1326","72","5","milano.bmp","","","","","","","","",""
"","1304","81","1304","-1","pre_task","poldrack-single-stim","75","181968","0.0-1.0-73.0","go_nogo","true","0","","<div class = bigBox><div class = pictureBox><img class='img.displayed' src='/static/experiments/gng_food/images/frostedcheerios.bmp'></img></div><div class = sliderbox><div class = buttonBox><div class = Button1><input type=""button"" id = ""button1"" value=""1"" onClick = ""pressSubmit(1, 81)""></div><div class = Button2><input type=""button"" id = ""button2"" value=""2"" onClick = ""pressSubmit(2, 81)""></div><div class = Button3><input type=""button"" id = ""button3"" value=""3"" onClick = ""pressSubmit(3, 81)""></div><div class = Button4><input type=""button"" id = ""button4"" value=""4"" onClick = ""pressSubmit(4, 81)""></div><div class = Button5><input type=""button"" id = ""button5"" value=""5"" onClick = ""pressSubmit(5, 81)""></div><div class = Button6><input type=""button"" id = ""button6"" value=""6"" onClick = ""pressSubmit(6, 81)""></div><div class = Button7><input type=""button"" id = ""button7"" value=""7"" onClick = ""pressSubmit(7, 81)""></div></div></div></div>","81","1304","73","2","frostedcheerios.bmp","","","","","","","","",""
"","1619","81","1619","-1","pre_task","poldrack-single-stim","76","183588","0.0-1.0-74.0","go_nogo","true","0","","<div class = bigBox><div class = pictureBox><img class='img.displayed' src='/static/experiments/gng_food/images/blueberryyogart.bmp'></img></div><div class = sliderbox><div class = buttonBox><div class = Button1><input type=""button"" id = ""button1"" value=""1"" onClick = ""pressSubmit(1, 81)""></div><div class = Button2><input type=""button"" id = ""button2"" value=""2"" onClick = ""pressSubmit(2, 81)""></div><div class = Button3><input type=""button"" id = ""button3"" value=""3"" onClick = ""pressSubmit(3, 81)""></div><div class = Button4><input type=""button"" id = ""button4"" value=""4"" onClick = ""pressSubmit(4, 81)""></div><div class = Button5><input type=""button"" id = ""button5"" value=""5"" onClick = ""pressSubmit(5, 81)""></div><div class = Button6><input type=""button"" id = ""button6"" value=""6"" onClick = ""pressSubmit(6, 81)""></div><div class = Button7><input type=""button"" id = ""button7"" value=""7"" onClick = ""pressSubmit(7, 81)""></div></div></div></div>","81","1619","74","2","blueberryyogart.bmp","","","","","","","","",""
"","3228","81","3228","-1","pre_task","poldrack-single-stim","77","186817","0.0-1.0-75.0","go_nogo","true","0","","<div class = bigBox><div class = pictureBox><img class='img.displayed' src='/static/experiments/gng_food/images/vanillapudding.bmp'></img></div><div class = sliderbox><div class = buttonBox><div class = Button1><input type=""button"" id = ""button1"" value=""1"" onClick = ""pressSubmit(1, 81)""></div><div class = Button2><input type=""button"" id = ""button2"" value=""2"" onClick = ""pressSubmit(2, 81)""></div><div class = Button3><input type=""button"" id = ""button3"" value=""3"" onClick = ""pressSubmit(3, 81)""></div><div class = Button4><input type=""button"" id = ""button4"" value=""4"" onClick = ""pressSubmit(4, 81)""></div><div class = Button5><input type=""button"" id = ""button5"" value=""5"" onClick = ""pressSubmit(5, 81)""></div><div class = Button6><input type=""button"" id = ""button6"" value=""6"" onClick = ""pressSubmit(6, 81)""></div><div class = Button7><input type=""button"" id = ""button7"" value=""7"" onClick = ""pressSubmit(7, 81)""></div></div></div></div>","81","3228","75","1","vanillapudding.bmp","","","","","","","","",""
"","2002","81","2002","-1","pre_task","poldrack-single-stim","78","188819","0.0-1.0-76.0","go_nogo","true","0","","<div class = bigBox><div class = pictureBox><img class='img.displayed' src='/static/experiments/gng_food/images/Fritos.bmp'></img></div><div class = sliderbox><div class = buttonBox><div class = Button1><input type=""button"" id = ""button1"" value=""1"" onClick = ""pressSubmit(1, 81)""></div><div class = Button2><input type=""button"" id = ""button2"" value=""2"" onClick = ""pressSubmit(2, 81)""></div><div class = Button3><input type=""button"" id = ""button3"" value=""3"" onClick = ""pressSubmit(3, 81)""></div><div class = Button4><input type=""button"" id = ""button4"" value=""4"" onClick = ""pressSubmit(4, 81)""></div><div class = Button5><input type=""button"" id = ""button5"" value=""5"" onClick = ""pressSubmit(5, 81)""></div><div class = Button6><input type=""button"" id = ""button6"" value=""6"" onClick = ""pressSubmit(6, 81)""></div><div class = Button7><input type=""button"" id = ""button7"" value=""7"" onClick = ""pressSubmit(7, 81)""></div></div></div></div>","81","2002","76","4","Fritos.bmp","","","","","","","","",""
"","2215","81","2215","-1","pre_task","poldrack-single-stim","79","191035","0.0-1.0-77.0","go_nogo","true","0","","<div class = bigBox><div class = pictureBox><img class='img.displayed' src='/static/experiments/gng_food/images/wwmuffin.bmp'></img></div><div class = sliderbox><div class = buttonBox><div class = Button1><input type=""button"" id = ""button1"" value=""1"" onClick = ""pressSubmit(1, 81)""></div><div class = Button2><input type=""button"" id = ""button2"" value=""2"" onClick = ""pressSubmit(2, 81)""></div><div class = Button3><input type=""button"" id = ""button3"" value=""3"" onClick = ""pressSubmit(3, 81)""></div><div class = Button4><input type=""button"" id = ""button4"" value=""4"" onClick = ""pressSubmit(4, 81)""></div><div class = Button5><input type=""button"" id = ""button5"" value=""5"" onClick = ""pressSubmit(5, 81)""></div><div class = Button6><input type=""button"" id = ""button6"" value=""6"" onClick = ""pressSubmit(6, 81)""></div><div class = Button7><input type=""button"" id = ""button7"" value=""7"" onClick = ""pressSubmit(7, 81)""></div></div></div></div>","81","2215","77","2","wwmuffin.bmp","","","","","","","","",""
"","1281","81","1281","-1","pre_task","poldrack-single-stim","80","192318","0.0-1.0-78.0","go_nogo","true","0","","<div class = bigBox><div class = pictureBox><img class='img.displayed' src='/static/experiments/gng_food/images/MrsFields.bmp'></img></div><div class = sliderbox><div class = buttonBox><div class = Button1><input type=""button"" id = ""button1"" value=""1"" onClick = ""pressSubmit(1, 81)""></div><div class = Button2><input type=""button"" id = ""button2"" value=""2"" onClick = ""pressSubmit(2, 81)""></div><div class = Button3><input type=""button"" id = ""button3"" value=""3"" onClick = ""pressSubmit(3, 81)""></div><div class = Button4><input type=""button"" id = ""button4"" value=""4"" onClick = ""pressSubmit(4, 81)""></div><div class = Button5><input type=""button"" id = ""button5"" value=""5"" onClick = ""pressSubmit(5, 81)""></div><div class = Button6><input type=""button"" id = ""button6"" value=""6"" onClick = ""pressSubmit(6, 81)""></div><div class = Button7><input type=""button"" id = ""button7"" value=""7"" onClick = ""pressSubmit(7, 81)""></div></div></div></div>","81","1281","78","5","MrsFields.bmp","","","","","","","","",""
"","1878","81","1878","-1","pre_task","poldrack-single-stim","81","194196","0.0-1.0-79.0","go_nogo","true","0","","<div class = bigBox><div class = pictureBox><img class='img.displayed' src='/static/experiments/gng_food/images/AnimalCrackers.bmp'></img></div><div class = sliderbox><div class = buttonBox><div class = Button1><input type=""button"" id = ""button1"" value=""1"" onClick = ""pressSubmit(1, 81)""></div><div class = Button2><input type=""button"" id = ""button2"" value=""2"" onClick = ""pressSubmit(2, 81)""></div><div class = Button3><input type=""button"" id = ""button3"" value=""3"" onClick = ""pressSubmit(3, 81)""></div><div class = Button4><input type=""button"" id = ""button4"" value=""4"" onClick = ""pressSubmit(4, 81)""></div><div class = Button5><input type=""button"" id = ""button5"" value=""5"" onClick = ""pressSubmit(5, 81)""></div><div class = Button6><input type=""button"" id = ""button6"" value=""6"" onClick = ""pressSubmit(6, 81)""></div><div class = Button7><input type=""button"" id = ""button7"" value=""7"" onClick = ""pressSubmit(7, 81)""></div></div></div></div>","81","1878","79","6","AnimalCrackers.bmp","","","","","","","","",""
"","2136","81","2136","-1","pre_task","poldrack-single-stim","82","196334","0.0-1.0-80.0","go_nogo","true","0","","<div class = bigBox><div class = pictureBox><img class='img.displayed' src='/static/experiments/gng_food/images/Doritosranch.bmp'></img></div><div class = sliderbox><div class = buttonBox><div class = Button1><input type=""button"" id = ""button1"" value=""1"" onClick = ""pressSubmit(1, 81)""></div><div class = Button2><input type=""button"" id = ""button2"" value=""2"" onClick = ""pressSubmit(2, 81)""></div><div class = Button3><input type=""button"" id = ""button3"" value=""3"" onClick = ""pressSubmit(3, 81)""></div><div class = Button4><input type=""button"" id = ""button4"" value=""4"" onClick = ""pressSubmit(4, 81)""></div><div class = Button5><input type=""button"" id = ""button5"" value=""5"" onClick = ""pressSubmit(5, 81)""></div><div class = Button6><input type=""button"" id = ""button6"" value=""6"" onClick = ""pressSubmit(6, 81)""></div><div class = Button7><input type=""button"" id = ""button7"" value=""7"" onClick = ""pressSubmit(7, 81)""></div></div></div></div>","81","2136","80","2","Doritosranch.bmp","","","","","","","","",""
"","1057","81","1057","-1","pre_task","poldrack-single-stim","83","197392","0.0-1.0-81.0","go_nogo","true","0","","<div class = bigBox><div class = pictureBox><img class='img.displayed' src='/static/experiments/gng_food/images/cheezits.bmp'></img></div><div class = sliderbox><div class = buttonBox><div class = Button1><input type=""button"" id = ""button1"" value=""1"" onClick = ""pressSubmit(1, 81)""></div><div class = Button2><input type=""button"" id = ""button2"" value=""2"" onClick = ""pressSubmit(2, 81)""></div><div class = Button3><input type=""button"" id = ""button3"" value=""3"" onClick = ""pressSubmit(3, 81)""></div><div class = Button4><input type=""button"" id = ""button4"" value=""4"" onClick = ""pressSubmit(4, 81)""></div><div class = Button5><input type=""button"" id = ""button5"" value=""5"" onClick = ""pressSubmit(5, 81)""></div><div class = Button6><input type=""button"" id = ""button6"" value=""6"" onClick = ""pressSubmit(6, 81)""></div><div class = Button7><input type=""button"" id = ""button7"" value=""7"" onClick = ""pressSubmit(7, 81)""></div></div></div></div>","81","1057","81","2","cheezits.bmp","","","","","","","","",""
"","1338","81","1338","-1","pre_task","poldrack-single-stim","84","198730","0.0-1.0-82.0","go_nogo","true","0","","<div class = bigBox><div class = pictureBox><img class='img.displayed' src='/static/experiments/gng_food/images/mixedyogart.bmp'></img></div><div class = sliderbox><div class = buttonBox><div class = Button1><input type=""button"" id = ""button1"" value=""1"" onClick = ""pressSubmit(1, 81)""></div><div class = Button2><input type=""button"" id = ""button2"" value=""2"" onClick = ""pressSubmit(2, 81)""></div><div class = Button3><input type=""button"" id = ""button3"" value=""3"" onClick = ""pressSubmit(3, 81)""></div><div class = Button4><input type=""button"" id = ""button4"" value=""4"" onClick = ""pressSubmit(4, 81)""></div><div class = Button5><input type=""button"" id = ""button5"" value=""5"" onClick = ""pressSubmit(5, 81)""></div><div class = Button6><input type=""button"" id = ""button6"" value=""6"" onClick = ""pressSubmit(6, 81)""></div><div class = Button7><input type=""button"" id = ""button7"" value=""7"" onClick = ""pressSubmit(7, 81)""></div></div></div></div>","81","1338","82","2","mixedyogart.bmp","","","","","","","","",""
"","1158","81","1158","-1","pre_task","poldrack-single-stim","85","199889","0.0-1.0-83.0","go_nogo","true","0","","<div class = bigBox><div class = pictureBox><img class='img.displayed' src='/static/experiments/gng_food/images/Goldfish.bmp'></img></div><div class = sliderbox><div class = buttonBox><div class = Button1><input type=""button"" id = ""button1"" value=""1"" onClick = ""pressSubmit(1, 81)""></div><div class = Button2><input type=""button"" id = ""button2"" value=""2"" onClick = ""pressSubmit(2, 81)""></div><div class = Button3><input type=""button"" id = ""button3"" value=""3"" onClick = ""pressSubmit(3, 81)""></div><div class = Button4><input type=""button"" id = ""button4"" value=""4"" onClick = ""pressSubmit(4, 81)""></div><div class = Button5><input type=""button"" id = ""button5"" value=""5"" onClick = ""pressSubmit(5, 81)""></div><div class = Button6><input type=""button"" id = ""button6"" value=""6"" onClick = ""pressSubmit(6, 81)""></div><div class = Button7><input type=""button"" id = ""button7"" value=""7"" onClick = ""pressSubmit(7, 81)""></div></div></div></div>","81","1158","83","6","Goldfish.bmp","","","","","","","","",""
