"text","rt","key_press","block_duration","timing_post_trial","trial_id","trial_type","trial_index","time_elapsed","internal_node_id","exp_id","full_screen","focus_shifts","view_history","stimulus","possible_responses","stim_duration","trial_num","initial_rating","preTaskStim","exp_stage","correct_response","correct","stim","accuracy","final_rating","postTaskStim","condition","difference"
"<div class = bigBox><div class = welcomeBox><p class = center-block-text><font color = ""white"">Welcome to the experiment. This experiment had 3 phases and will take about 40 minutes. Press <strong>enter</strong> to begin.</font></p></div></div>","6509","13","6509","-1","instruction","poldrack-text","0","6511","0.0-0.0-0.0","go_nogo","true","0","","","","","","","","","","","","","","","",""
"","11452","","","","instruction","poldrack-instructions","1","17964","0.0-0.0-1.0","go_nogo","true","0","[{""page_index"":0,""viewing_time"":11452}]","","","","","","","","","","","","","","",""
"","7445","81","7445","-1","pre_task","poldrack-single-stim","2","25412","0.0-1.0-0.0","go_nogo","true","0","","<div class = bigBox><div class = pictureBox><img class='img.displayed' src='/static/experiments/gng_food/images/cranberries.bmp'></img></div><div class = sliderbox><div class = buttonBox><div class = Button1><input type=""button"" id = ""button1"" value=""1"" onClick = ""pressSubmit(1, 81)""></div><div class = Button2><input type=""button"" id = ""button2"" value=""2"" onClick = ""pressSubmit(2, 81)""></div><div class = Button3><input type=""button"" id = ""button3"" value=""3"" onClick = ""pressSubmit(3, 81)""></div><div class = Button4><input type=""button"" id = ""button4"" value=""4"" onClick = ""pressSubmit(4, 81)""></div><div class = Button5><input type=""button"" id = ""button5"" value=""5"" onClick = ""pressSubmit(5, 81)""></div><div class = Button6><input type=""button"" id = ""button6"" value=""6"" onClick = ""pressSubmit(6, 81)""></div><div class = Button7><input type=""button"" id = ""button7"" value=""7"" onClick = ""pressSubmit(7, 81)""></div></div></div></div>","81","7445","0","4","cranberries.bmp","","","","","","","","",""
"","6872","81","6872","-1","pre_task","poldrack-single-stim","3","32286","0.0-1.0-1.0","go_nogo","true","0","","<div class = bigBox><div class = pictureBox><img class='img.displayed' src='/static/experiments/gng_food/images/lollipopred.bmp'></img></div><div class = sliderbox><div class = buttonBox><div class = Button1><input type=""button"" id = ""button1"" value=""1"" onClick = ""pressSubmit(1, 81)""></div><div class = Button2><input type=""button"" id = ""button2"" value=""2"" onClick = ""pressSubmit(2, 81)""></div><div class = Button3><input type=""button"" id = ""button3"" value=""3"" onClick = ""pressSubmit(3, 81)""></div><div class = Button4><input type=""button"" id = ""button4"" value=""4"" onClick = ""pressSubmit(4, 81)""></div><div class = Button5><input type=""button"" id = ""button5"" value=""5"" onClick = ""pressSubmit(5, 81)""></div><div class = Button6><input type=""button"" id = ""button6"" value=""6"" onClick = ""pressSubmit(6, 81)""></div><div class = Button7><input type=""button"" id = ""button7"" value=""7"" onClick = ""pressSubmit(7, 81)""></div></div></div></div>","81","6872","1","3","lollipopred.bmp","","","","","","","","",""
"","4476","81","4476","-1","pre_task","poldrack-single-stim","4","36763","0.0-1.0-2.0","go_nogo","true","0","","<div class = bigBox><div class = pictureBox><img class='img.displayed' src='/static/experiments/gng_food/images/FigNewton_small.bmp'></img></div><div class = sliderbox><div class = buttonBox><div class = Button1><input type=""button"" id = ""button1"" value=""1"" onClick = ""pressSubmit(1, 81)""></div><div class = Button2><input type=""button"" id = ""button2"" value=""2"" onClick = ""pressSubmit(2, 81)""></div><div class = Button3><input type=""button"" id = ""button3"" value=""3"" onClick = ""pressSubmit(3, 81)""></div><div class = Button4><input type=""button"" id = ""button4"" value=""4"" onClick = ""pressSubmit(4, 81)""></div><div class = Button5><input type=""button"" id = ""button5"" value=""5"" onClick = ""pressSubmit(5, 81)""></div><div class = Button6><input type=""button"" id = ""button6"" value=""6"" onClick = ""pressSubmit(6, 81)""></div><div class = Button7><input type=""button"" id = ""button7"" value=""7"" onClick = ""pressSubmit(7, 81)""></div></div></div></div>","81","4476","2","4","FigNewton_small.bmp","","","","","","","","",""
"","3092","81","3092","-1","pre_task","poldrack-single-stim","5","39857","0.0-1.0-3.0","go_nogo","true","0","","<div class = bigBox><div class = pictureBox><img class='img.displayed' src='/static/experiments/gng_food/images/CornPops.bmp'></img></div><div class = sliderbox><div class = buttonBox><div class = Button1><input type=""button"" id = ""button1"" value=""1"" onClick = ""pressSubmit(1, 81)""></div><div class = Button2><input type=""button"" id = ""button2"" value=""2"" onClick = ""pressSubmit(2, 81)""></div><div class = Button3><input type=""button"" id = ""button3"" value=""3"" onClick = ""pressSubmit(3, 81)""></div><div class = Button4><input type=""button"" id = ""button4"" value=""4"" onClick = ""pressSubmit(4, 81)""></div><div class = Button5><input type=""button"" id = ""button5"" value=""5"" onClick = ""pressSubmit(5, 81)""></div><div class = Button6><input type=""button"" id = ""button6"" value=""6"" onClick = ""pressSubmit(6, 81)""></div><div class = Button7><input type=""button"" id = ""button7"" value=""7"" onClick = ""pressSubmit(7, 81)""></div></div></div></div>","81","3092","3","5","CornPops.bmp","","","","","","","","",""
"","2800","81","2800","-1","pre_task","poldrack-single-stim","6","42658","0.0-1.0-4.0","go_nogo","true","0","","<div class = bigBox><div class = pictureBox><img class='img.displayed' src='/static/experiments/gng_food/images/Fritos.bmp'></img></div><div class = sliderbox><div class = buttonBox><div class = Button1><input type=""button"" id = ""button1"" value=""1"" onClick = ""pressSubmit(1, 81)""></div><div class = Button2><input type=""button"" id = ""button2"" value=""2"" onClick = ""pressSubmit(2, 81)""></div><div class = Button3><input type=""button"" id = ""button3"" value=""3"" onClick = ""pressSubmit(3, 81)""></div><div class = Button4><input type=""button"" id = ""button4"" value=""4"" onClick = ""pressSubmit(4, 81)""></div><div class = Button5><input type=""button"" id = ""button5"" value=""5"" onClick = ""pressSubmit(5, 81)""></div><div class = Button6><input type=""button"" id = ""button6"" value=""6"" onClick = ""pressSubmit(6, 81)""></div><div class = Button7><input type=""button"" id = ""button7"" value=""7"" onClick = ""pressSubmit(7, 81)""></div></div></div></div>","81","2800","4","6","Fritos.bmp","","","","","","","","",""
"","3048","81","3048","-1","pre_task","poldrack-single-stim","7","45707","0.0-1.0-5.0","go_nogo","true","0","","<div class = bigBox><div class = pictureBox><img class='img.displayed' src='/static/experiments/gng_food/images/icecreamsandwich.bmp'></img></div><div class = sliderbox><div class = buttonBox><div class = Button1><input type=""button"" id = ""button1"" value=""1"" onClick = ""pressSubmit(1, 81)""></div><div class = Button2><input type=""button"" id = ""button2"" value=""2"" onClick = ""pressSubmit(2, 81)""></div><div class = Button3><input type=""button"" id = ""button3"" value=""3"" onClick = ""pressSubmit(3, 81)""></div><div class = Button4><input type=""button"" id = ""button4"" value=""4"" onClick = ""pressSubmit(4, 81)""></div><div class = Button5><input type=""button"" id = ""button5"" value=""5"" onClick = ""pressSubmit(5, 81)""></div><div class = Button6><input type=""button"" id = ""button6"" value=""6"" onClick = ""pressSubmit(6, 81)""></div><div class = Button7><input type=""button"" id = ""button7"" value=""7"" onClick = ""pressSubmit(7, 81)""></div></div></div></div>","81","3048","5","7","icecreamsandwich.bmp","","","","","","","","",""
"","4419","81","4419","-1","pre_task","poldrack-single-stim","8","50128","0.0-1.0-6.0","go_nogo","true","0","","<div class = bigBox><div class = pictureBox><img class='img.displayed' src='/static/experiments/gng_food/images/cellery.bmp'></img></div><div class = sliderbox><div class = buttonBox><div class = Button1><input type=""button"" id = ""button1"" value=""1"" onClick = ""pressSubmit(1, 81)""></div><div class = Button2><input type=""button"" id = ""button2"" value=""2"" onClick = ""pressSubmit(2, 81)""></div><div class = Button3><input type=""button"" id = ""button3"" value=""3"" onClick = ""pressSubmit(3, 81)""></div><div class = Button4><input type=""button"" id = ""button4"" value=""4"" onClick = ""pressSubmit(4, 81)""></div><div class = Button5><input type=""button"" id = ""button5"" value=""5"" onClick = ""pressSubmit(5, 81)""></div><div class = Button6><input type=""button"" id = ""button6"" value=""6"" onClick = ""pressSubmit(6, 81)""></div><div class = Button7><input type=""button"" id = ""button7"" value=""7"" onClick = ""pressSubmit(7, 81)""></div></div></div></div>","81","4419","6","3","cellery.bmp","","","","","","","","",""
"","3352","81","3352","-1","pre_task","poldrack-single-stim","9","53481","0.0-1.0-7.0","go_nogo","true","0","","<div class = bigBox><div class = pictureBox><img class='img.displayed' src='/static/experiments/gng_food/images/PeanutMMs.bmp'></img></div><div class = sliderbox><div class = buttonBox><div class = Button1><input type=""button"" id = ""button1"" value=""1"" onClick = ""pressSubmit(1, 81)""></div><div class = Button2><input type=""button"" id = ""button2"" value=""2"" onClick = ""pressSubmit(2, 81)""></div><div class = Button3><input type=""button"" id = ""button3"" value=""3"" onClick = ""pressSubmit(3, 81)""></div><div class = Button4><input type=""button"" id = ""button4"" value=""4"" onClick = ""pressSubmit(4, 81)""></div><div class = Button5><input type=""button"" id = ""button5"" value=""5"" onClick = ""pressSubmit(5, 81)""></div><div class = Button6><input type=""button"" id = ""button6"" value=""6"" onClick = ""pressSubmit(6, 81)""></div><div class = Button7><input type=""button"" id = ""button7"" value=""7"" onClick = ""pressSubmit(7, 81)""></div></div></div></div>","81","3352","7","5","PeanutMMs.bmp","","","","","","","","",""
"","2069","81","2069","-1","pre_task","poldrack-single-stim","10","55551","0.0-1.0-8.0","go_nogo","true","0","","<div class = bigBox><div class = pictureBox><img class='img.displayed' src='/static/experiments/gng_food/images/pizza.bmp'></img></div><div class = sliderbox><div class = buttonBox><div class = Button1><input type=""button"" id = ""button1"" value=""1"" onClick = ""pressSubmit(1, 81)""></div><div class = Button2><input type=""button"" id = ""button2"" value=""2"" onClick = ""pressSubmit(2, 81)""></div><div class = Button3><input type=""button"" id = ""button3"" value=""3"" onClick = ""pressSubmit(3, 81)""></div><div class = Button4><input type=""button"" id = ""button4"" value=""4"" onClick = ""pressSubmit(4, 81)""></div><div class = Button5><input type=""button"" id = ""button5"" value=""5"" onClick = ""pressSubmit(5, 81)""></div><div class = Button6><input type=""button"" id = ""button6"" value=""6"" onClick = ""pressSubmit(6, 81)""></div><div class = Button7><input type=""button"" id = ""button7"" value=""7"" onClick = ""pressSubmit(7, 81)""></div></div></div></div>","81","2069","8","7","pizza.bmp","","","","","","","","",""
"","2755","81","2755","-1","pre_task","poldrack-single-stim","11","58307","0.0-1.0-9.0","go_nogo","true","0","","<div class = bigBox><div class = pictureBox><img class='img.displayed' src='/static/experiments/gng_food/images/donettesbrown.bmp'></img></div><div class = sliderbox><div class = buttonBox><div class = Button1><input type=""button"" id = ""button1"" value=""1"" onClick = ""pressSubmit(1, 81)""></div><div class = Button2><input type=""button"" id = ""button2"" value=""2"" onClick = ""pressSubmit(2, 81)""></div><div class = Button3><input type=""button"" id = ""button3"" value=""3"" onClick = ""pressSubmit(3, 81)""></div><div class = Button4><input type=""button"" id = ""button4"" value=""4"" onClick = ""pressSubmit(4, 81)""></div><div class = Button5><input type=""button"" id = ""button5"" value=""5"" onClick = ""pressSubmit(5, 81)""></div><div class = Button6><input type=""button"" id = ""button6"" value=""6"" onClick = ""pressSubmit(6, 81)""></div><div class = Button7><input type=""button"" id = ""button7"" value=""7"" onClick = ""pressSubmit(7, 81)""></div></div></div></div>","81","2755","9","6","donettesbrown.bmp","","","","","","","","",""
"","1676","81","1676","-1","pre_task","poldrack-single-stim","12","59983","0.0-1.0-10.0","go_nogo","true","0","","<div class = bigBox><div class = pictureBox><img class='img.displayed' src='/static/experiments/gng_food/images/Lindt_small.bmp'></img></div><div class = sliderbox><div class = buttonBox><div class = Button1><input type=""button"" id = ""button1"" value=""1"" onClick = ""pressSubmit(1, 81)""></div><div class = Button2><input type=""button"" id = ""button2"" value=""2"" onClick = ""pressSubmit(2, 81)""></div><div class = Button3><input type=""button"" id = ""button3"" value=""3"" onClick = ""pressSubmit(3, 81)""></div><div class = Button4><input type=""button"" id = ""button4"" value=""4"" onClick = ""pressSubmit(4, 81)""></div><div class = Button5><input type=""button"" id = ""button5"" value=""5"" onClick = ""pressSubmit(5, 81)""></div><div class = Button6><input type=""button"" id = ""button6"" value=""6"" onClick = ""pressSubmit(6, 81)""></div><div class = Button7><input type=""button"" id = ""button7"" value=""7"" onClick = ""pressSubmit(7, 81)""></div></div></div></div>","81","1676","10","7","Lindt_small.bmp","","","","","","","","",""
"","2204","81","2204","-1","pre_task","poldrack-single-stim","13","62189","0.0-1.0-11.0","go_nogo","true","0","","<div class = bigBox><div class = pictureBox><img class='img.displayed' src='/static/experiments/gng_food/images/MrsFields.bmp'></img></div><div class = sliderbox><div class = buttonBox><div class = Button1><input type=""button"" id = ""button1"" value=""1"" onClick = ""pressSubmit(1, 81)""></div><div class = Button2><input type=""button"" id = ""button2"" value=""2"" onClick = ""pressSubmit(2, 81)""></div><div class = Button3><input type=""button"" id = ""button3"" value=""3"" onClick = ""pressSubmit(3, 81)""></div><div class = Button4><input type=""button"" id = ""button4"" value=""4"" onClick = ""pressSubmit(4, 81)""></div><div class = Button5><input type=""button"" id = ""button5"" value=""5"" onClick = ""pressSubmit(5, 81)""></div><div class = Button6><input type=""button"" id = ""button6"" value=""6"" onClick = ""pressSubmit(6, 81)""></div><div class = Button7><input type=""button"" id = ""button7"" value=""7"" onClick = ""pressSubmit(7, 81)""></div></div></div></div>","81","2204","11","7","MrsFields.bmp","","","","","","","","",""
"","2451","81","2451","-1","pre_task","poldrack-single-stim","14","64641","0.0-1.0-12.0","go_nogo","true","0","","<div class = bigBox><div class = pictureBox><img class='img.displayed' src='/static/experiments/gng_food/images/cherryicecream.bmp'></img></div><div class = sliderbox><div class = buttonBox><div class = Button1><input type=""button"" id = ""button1"" value=""1"" onClick = ""pressSubmit(1, 81)""></div><div class = Button2><input type=""button"" id = ""button2"" value=""2"" onClick = ""pressSubmit(2, 81)""></div><div class = Button3><input type=""button"" id = ""button3"" value=""3"" onClick = ""pressSubmit(3, 81)""></div><div class = Button4><input type=""button"" id = ""button4"" value=""4"" onClick = ""pressSubmit(4, 81)""></div><div class = Button5><input type=""button"" id = ""button5"" value=""5"" onClick = ""pressSubmit(5, 81)""></div><div class = Button6><input type=""button"" id = ""button6"" value=""6"" onClick = ""pressSubmit(6, 81)""></div><div class = Button7><input type=""button"" id = ""button7"" value=""7"" onClick = ""pressSubmit(7, 81)""></div></div></div></div>","81","2451","12","6","cherryicecream.bmp","","","","","","","","",""
"","2666","81","2666","-1","pre_task","poldrack-single-stim","15","67307","0.0-1.0-13.0","go_nogo","true","0","","<div class = bigBox><div class = pictureBox><img class='img.displayed' src='/static/experiments/gng_food/images/orange.bmp'></img></div><div class = sliderbox><div class = buttonBox><div class = Button1><input type=""button"" id = ""button1"" value=""1"" onClick = ""pressSubmit(1, 81)""></div><div class = Button2><input type=""button"" id = ""button2"" value=""2"" onClick = ""pressSubmit(2, 81)""></div><div class = Button3><input type=""button"" id = ""button3"" value=""3"" onClick = ""pressSubmit(3, 81)""></div><div class = Button4><input type=""button"" id = ""button4"" value=""4"" onClick = ""pressSubmit(4, 81)""></div><div class = Button5><input type=""button"" id = ""button5"" value=""5"" onClick = ""pressSubmit(5, 81)""></div><div class = Button6><input type=""button"" id = ""button6"" value=""6"" onClick = ""pressSubmit(6, 81)""></div><div class = Button7><input type=""button"" id = ""button7"" value=""7"" onClick = ""pressSubmit(7, 81)""></div></div></div></div>","81","2666","13","4","orange.bmp","","","","","","","","",""
"","2114","81","2114","-1","pre_task","poldrack-single-stim","16","69422","0.0-1.0-14.0","go_nogo","true","0","","<div class = bigBox><div class = pictureBox><img class='img.displayed' src='/static/experiments/gng_food/images/KitKat_small.bmp'></img></div><div class = sliderbox><div class = buttonBox><div class = Button1><input type=""button"" id = ""button1"" value=""1"" onClick = ""pressSubmit(1, 81)""></div><div class = Button2><input type=""button"" id = ""button2"" value=""2"" onClick = ""pressSubmit(2, 81)""></div><div class = Button3><input type=""button"" id = ""button3"" value=""3"" onClick = ""pressSubmit(3, 81)""></div><div class = Button4><input type=""button"" id = ""button4"" value=""4"" onClick = ""pressSubmit(4, 81)""></div><div class = Button5><input type=""button"" id = ""button5"" value=""5"" onClick = ""pressSubmit(5, 81)""></div><div class = Button6><input type=""button"" id = ""button6"" value=""6"" onClick = ""pressSubmit(6, 81)""></div><div class = Button7><input type=""button"" id = ""button7"" value=""7"" onClick = ""pressSubmit(7, 81)""></div></div></div></div>","81","2114","14","7","KitKat_small.bmp","","","","","","","","",""
"","3149","81","3149","-1","pre_task","poldrack-single-stim","17","72572","0.0-1.0-15.0","go_nogo","true","0","","<div class = bigBox><div class = pictureBox><img class='img.displayed' src='/static/experiments/gng_food/images/grapenerds.bmp'></img></div><div class = sliderbox><div class = buttonBox><div class = Button1><input type=""button"" id = ""button1"" value=""1"" onClick = ""pressSubmit(1, 81)""></div><div class = Button2><input type=""button"" id = ""button2"" value=""2"" onClick = ""pressSubmit(2, 81)""></div><div class = Button3><input type=""button"" id = ""button3"" value=""3"" onClick = ""pressSubmit(3, 81)""></div><div class = Button4><input type=""button"" id = ""button4"" value=""4"" onClick = ""pressSubmit(4, 81)""></div><div class = Button5><input type=""button"" id = ""button5"" value=""5"" onClick = ""pressSubmit(5, 81)""></div><div class = Button6><input type=""button"" id = ""button6"" value=""6"" onClick = ""pressSubmit(6, 81)""></div><div class = Button7><input type=""button"" id = ""button7"" value=""7"" onClick = ""pressSubmit(7, 81)""></div></div></div></div>","81","3149","15","3","grapenerds.bmp","","","","","","","","",""
"","1979","81","1979","-1","pre_task","poldrack-single-stim","18","74552","0.0-1.0-16.0","go_nogo","true","0","","<div class = bigBox><div class = pictureBox><img class='img.displayed' src='/static/experiments/gng_food/images/luckycharms.bmp'></img></div><div class = sliderbox><div class = buttonBox><div class = Button1><input type=""button"" id = ""button1"" value=""1"" onClick = ""pressSubmit(1, 81)""></div><div class = Button2><input type=""button"" id = ""button2"" value=""2"" onClick = ""pressSubmit(2, 81)""></div><div class = Button3><input type=""button"" id = ""button3"" value=""3"" onClick = ""pressSubmit(3, 81)""></div><div class = Button4><input type=""button"" id = ""button4"" value=""4"" onClick = ""pressSubmit(4, 81)""></div><div class = Button5><input type=""button"" id = ""button5"" value=""5"" onClick = ""pressSubmit(5, 81)""></div><div class = Button6><input type=""button"" id = ""button6"" value=""6"" onClick = ""pressSubmit(6, 81)""></div><div class = Button7><input type=""button"" id = ""button7"" value=""7"" onClick = ""pressSubmit(7, 81)""></div></div></div></div>","81","1979","16","3","luckycharms.bmp","","","","","","","","",""
"","2462","81","2462","-1","pre_task","poldrack-single-stim","19","77016","0.0-1.0-17.0","go_nogo","true","0","","<div class = bigBox><div class = pictureBox><img class='img.displayed' src='/static/experiments/gng_food/images/carrots.bmp'></img></div><div class = sliderbox><div class = buttonBox><div class = Button1><input type=""button"" id = ""button1"" value=""1"" onClick = ""pressSubmit(1, 81)""></div><div class = Button2><input type=""button"" id = ""button2"" value=""2"" onClick = ""pressSubmit(2, 81)""></div><div class = Button3><input type=""button"" id = ""button3"" value=""3"" onClick = ""pressSubmit(3, 81)""></div><div class = Button4><input type=""button"" id = ""button4"" value=""4"" onClick = ""pressSubmit(4, 81)""></div><div class = Button5><input type=""button"" id = ""button5"" value=""5"" onClick = ""pressSubmit(5, 81)""></div><div class = Button6><input type=""button"" id = ""button6"" value=""6"" onClick = ""pressSubmit(6, 81)""></div><div class = Button7><input type=""button"" id = ""button7"" value=""7"" onClick = ""pressSubmit(7, 81)""></div></div></div></div>","81","2462","17","4","carrots.bmp","","","","","","","","",""
"","3656","81","3656","-1","pre_task","poldrack-single-stim","20","80672","0.0-1.0-18.0","go_nogo","true","0","","<div class = bigBox><div class = pictureBox><img class='img.displayed' src='/static/experiments/gng_food/images/Ghiradelli_milk_Almonds.bmp'></img></div><div class = sliderbox><div class = buttonBox><div class = Button1><input type=""button"" id = ""button1"" value=""1"" onClick = ""pressSubmit(1, 81)""></div><div class = Button2><input type=""button"" id = ""button2"" value=""2"" onClick = ""pressSubmit(2, 81)""></div><div class = Button3><input type=""button"" id = ""button3"" value=""3"" onClick = ""pressSubmit(3, 81)""></div><div class = Button4><input type=""button"" id = ""button4"" value=""4"" onClick = ""pressSubmit(4, 81)""></div><div class = Button5><input type=""button"" id = ""button5"" value=""5"" onClick = ""pressSubmit(5, 81)""></div><div class = Button6><input type=""button"" id = ""button6"" value=""6"" onClick = ""pressSubmit(6, 81)""></div><div class = Button7><input type=""button"" id = ""button7"" value=""7"" onClick = ""pressSubmit(7, 81)""></div></div></div></div>","81","3656","18","7","Ghiradelli_milk_Almonds.bmp","","","","","","","","",""
"","2046","81","2046","-1","pre_task","poldrack-single-stim","21","82720","0.0-1.0-19.0","go_nogo","true","0","","<div class = bigBox><div class = pictureBox><img class='img.displayed' src='/static/experiments/gng_food/images/hersheykisses.bmp'></img></div><div class = sliderbox><div class = buttonBox><div class = Button1><input type=""button"" id = ""button1"" value=""1"" onClick = ""pressSubmit(1, 81)""></div><div class = Button2><input type=""button"" id = ""button2"" value=""2"" onClick = ""pressSubmit(2, 81)""></div><div class = Button3><input type=""button"" id = ""button3"" value=""3"" onClick = ""pressSubmit(3, 81)""></div><div class = Button4><input type=""button"" id = ""button4"" value=""4"" onClick = ""pressSubmit(4, 81)""></div><div class = Button5><input type=""button"" id = ""button5"" value=""5"" onClick = ""pressSubmit(5, 81)""></div><div class = Button6><input type=""button"" id = ""button6"" value=""6"" onClick = ""pressSubmit(6, 81)""></div><div class = Button7><input type=""button"" id = ""button7"" value=""7"" onClick = ""pressSubmit(7, 81)""></div></div></div></div>","81","2046","19","6","hersheykisses.bmp","","","","","","","","",""
"","3104","81","3104","-1","pre_task","poldrack-single-stim","22","85825","0.0-1.0-20.0","go_nogo","true","0","","<div class = bigBox><div class = pictureBox><img class='img.displayed' src='/static/experiments/gng_food/images/Ghiradelli_milk.bmp'></img></div><div class = sliderbox><div class = buttonBox><div class = Button1><input type=""button"" id = ""button1"" value=""1"" onClick = ""pressSubmit(1, 81)""></div><div class = Button2><input type=""button"" id = ""button2"" value=""2"" onClick = ""pressSubmit(2, 81)""></div><div class = Button3><input type=""button"" id = ""button3"" value=""3"" onClick = ""pressSubmit(3, 81)""></div><div class = Button4><input type=""button"" id = ""button4"" value=""4"" onClick = ""pressSubmit(4, 81)""></div><div class = Button5><input type=""button"" id = ""button5"" value=""5"" onClick = ""pressSubmit(5, 81)""></div><div class = Button6><input type=""button"" id = ""button6"" value=""6"" onClick = ""pressSubmit(6, 81)""></div><div class = Button7><input type=""button"" id = ""button7"" value=""7"" onClick = ""pressSubmit(7, 81)""></div></div></div></div>","81","3104","20","7","Ghiradelli_milk.bmp","","","","","","","","",""
"","4847","81","4847","-1","pre_task","poldrack-single-stim","23","90674","0.0-1.0-21.0","go_nogo","true","0","","<div class = bigBox><div class = pictureBox><img class='img.displayed' src='/static/experiments/gng_food/images/pringlescheezums.bmp'></img></div><div class = sliderbox><div class = buttonBox><div class = Button1><input type=""button"" id = ""button1"" value=""1"" onClick = ""pressSubmit(1, 81)""></div><div class = Button2><input type=""button"" id = ""button2"" value=""2"" onClick = ""pressSubmit(2, 81)""></div><div class = Button3><input type=""button"" id = ""button3"" value=""3"" onClick = ""pressSubmit(3, 81)""></div><div class = Button4><input type=""button"" id = ""button4"" value=""4"" onClick = ""pressSubmit(4, 81)""></div><div class = Button5><input type=""button"" id = ""button5"" value=""5"" onClick = ""pressSubmit(5, 81)""></div><div class = Button6><input type=""button"" id = ""button6"" value=""6"" onClick = ""pressSubmit(6, 81)""></div><div class = Button7><input type=""button"" id = ""button7"" value=""7"" onClick = ""pressSubmit(7, 81)""></div></div></div></div>","81","4847","21","5","pringlescheezums.bmp","","","","","","","","",""
"","4713","81","4713","-1","pre_task","poldrack-single-stim","24","95387","0.0-1.0-22.0","go_nogo","true","0","","<div class = bigBox><div class = pictureBox><img class='img.displayed' src='/static/experiments/gng_food/images/wwbrownie.bmp'></img></div><div class = sliderbox><div class = buttonBox><div class = Button1><input type=""button"" id = ""button1"" value=""1"" onClick = ""pressSubmit(1, 81)""></div><div class = Button2><input type=""button"" id = ""button2"" value=""2"" onClick = ""pressSubmit(2, 81)""></div><div class = Button3><input type=""button"" id = ""button3"" value=""3"" onClick = ""pressSubmit(3, 81)""></div><div class = Button4><input type=""button"" id = ""button4"" value=""4"" onClick = ""pressSubmit(4, 81)""></div><div class = Button5><input type=""button"" id = ""button5"" value=""5"" onClick = ""pressSubmit(5, 81)""></div><div class = Button6><input type=""button"" id = ""button6"" value=""6"" onClick = ""pressSubmit(6, 81)""></div><div class = Button7><input type=""button"" id = ""button7"" value=""7"" onClick = ""pressSubmit(7, 81)""></div></div></div></div>","81","4713","22","4","wwbrownie.bmp","","","","","","","","",""
"","3261","81","3261","-1","pre_task","poldrack-single-stim","25","98649","0.0-1.0-23.0","go_nogo","true","0","","<div class = bigBox><div class = pictureBox><img class='img.displayed' src='/static/experiments/gng_food/images/trix.bmp'></img></div><div class = sliderbox><div class = buttonBox><div class = Button1><input type=""button"" id = ""button1"" value=""1"" onClick = ""pressSubmit(1, 81)""></div><div class = Button2><input type=""button"" id = ""button2"" value=""2"" onClick = ""pressSubmit(2, 81)""></div><div class = Button3><input type=""button"" id = ""button3"" value=""3"" onClick = ""pressSubmit(3, 81)""></div><div class = Button4><input type=""button"" id = ""button4"" value=""4"" onClick = ""pressSubmit(4, 81)""></div><div class = Button5><input type=""button"" id = ""button5"" value=""5"" onClick = ""pressSubmit(5, 81)""></div><div class = Button6><input type=""button"" id = ""button6"" value=""6"" onClick = ""pressSubmit(6, 81)""></div><div class = Button7><input type=""button"" id = ""button7"" value=""7"" onClick = ""pressSubmit(7, 81)""></div></div></div></div>","81","3261","23","5","trix.bmp","","","","","","","","",""
"","1529","81","1529","-1","pre_task","poldrack-single-stim","26","100180","0.0-1.0-24.0","go_nogo","true","0","","<div class = bigBox><div class = pictureBox><img class='img.displayed' src='/static/experiments/gng_food/images/whitegrapes.bmp'></img></div><div class = sliderbox><div class = buttonBox><div class = Button1><input type=""button"" id = ""button1"" value=""1"" onClick = ""pressSubmit(1, 81)""></div><div class = Button2><input type=""button"" id = ""button2"" value=""2"" onClick = ""pressSubmit(2, 81)""></div><div class = Button3><input type=""button"" id = ""button3"" value=""3"" onClick = ""pressSubmit(3, 81)""></div><div class = Button4><input type=""button"" id = ""button4"" value=""4"" onClick = ""pressSubmit(4, 81)""></div><div class = Button5><input type=""button"" id = ""button5"" value=""5"" onClick = ""pressSubmit(5, 81)""></div><div class = Button6><input type=""button"" id = ""button6"" value=""6"" onClick = ""pressSubmit(6, 81)""></div><div class = Button7><input type=""button"" id = ""button7"" value=""7"" onClick = ""pressSubmit(7, 81)""></div></div></div></div>","81","1529","24","4","whitegrapes.bmp","","","","","","","","",""
"","1597","81","1597","-1","pre_task","poldrack-single-stim","27","101777","0.0-1.0-25.0","go_nogo","true","0","","<div class = bigBox><div class = pictureBox><img class='img.displayed' src='/static/experiments/gng_food/images/WheatThins.bmp'></img></div><div class = sliderbox><div class = buttonBox><div class = Button1><input type=""button"" id = ""button1"" value=""1"" onClick = ""pressSubmit(1, 81)""></div><div class = Button2><input type=""button"" id = ""button2"" value=""2"" onClick = ""pressSubmit(2, 81)""></div><div class = Button3><input type=""button"" id = ""button3"" value=""3"" onClick = ""pressSubmit(3, 81)""></div><div class = Button4><input type=""button"" id = ""button4"" value=""4"" onClick = ""pressSubmit(4, 81)""></div><div class = Button5><input type=""button"" id = ""button5"" value=""5"" onClick = ""pressSubmit(5, 81)""></div><div class = Button6><input type=""button"" id = ""button6"" value=""6"" onClick = ""pressSubmit(6, 81)""></div><div class = Button7><input type=""button"" id = ""button7"" value=""7"" onClick = ""pressSubmit(7, 81)""></div></div></div></div>","81","1597","25","5","WheatThins.bmp","","","","","","","","",""
"","1529","81","1529","-1","pre_task","poldrack-single-stim","28","103308","0.0-1.0-26.0","go_nogo","true","0","","<div class = bigBox><div class = pictureBox><img class='img.displayed' src='/static/experiments/gng_food/images/CheesyDoritos.bmp'></img></div><div class = sliderbox><div class = buttonBox><div class = Button1><input type=""button"" id = ""button1"" value=""1"" onClick = ""pressSubmit(1, 81)""></div><div class = Button2><input type=""button"" id = ""button2"" value=""2"" onClick = ""pressSubmit(2, 81)""></div><div class = Button3><input type=""button"" id = ""button3"" value=""3"" onClick = ""pressSubmit(3, 81)""></div><div class = Button4><input type=""button"" id = ""button4"" value=""4"" onClick = ""pressSubmit(4, 81)""></div><div class = Button5><input type=""button"" id = ""button5"" value=""5"" onClick = ""pressSubmit(5, 81)""></div><div class = Button6><input type=""button"" id = ""button6"" value=""6"" onClick = ""pressSubmit(6, 81)""></div><div class = Button7><input type=""button"" id = ""button7"" value=""7"" onClick = ""pressSubmit(7, 81)""></div></div></div></div>","81","1529","26","5","CheesyDoritos.bmp","","","","","","","","",""
"","6625","81","6625","-1","pre_task","poldrack-single-stim","29","109934","0.0-1.0-27.0","go_nogo","true","0","","<div class = bigBox><div class = pictureBox><img class='img.displayed' src='/static/experiments/gng_food/images/granolabar.bmp'></img></div><div class = sliderbox><div class = buttonBox><div class = Button1><input type=""button"" id = ""button1"" value=""1"" onClick = ""pressSubmit(1, 81)""></div><div class = Button2><input type=""button"" id = ""button2"" value=""2"" onClick = ""pressSubmit(2, 81)""></div><div class = Button3><input type=""button"" id = ""button3"" value=""3"" onClick = ""pressSubmit(3, 81)""></div><div class = Button4><input type=""button"" id = ""button4"" value=""4"" onClick = ""pressSubmit(4, 81)""></div><div class = Button5><input type=""button"" id = ""button5"" value=""5"" onClick = ""pressSubmit(5, 81)""></div><div class = Button6><input type=""button"" id = ""button6"" value=""6"" onClick = ""pressSubmit(6, 81)""></div><div class = Button7><input type=""button"" id = ""button7"" value=""7"" onClick = ""pressSubmit(7, 81)""></div></div></div></div>","81","6625","27","3","granolabar.bmp","","","","","","","","",""
"","3520","81","3520","-1","pre_task","poldrack-single-stim","30","113455","0.0-1.0-28.0","go_nogo","true","0","","<div class = bigBox><div class = pictureBox><img class='img.displayed' src='/static/experiments/gng_food/images/Musketeers.bmp'></img></div><div class = sliderbox><div class = buttonBox><div class = Button1><input type=""button"" id = ""button1"" value=""1"" onClick = ""pressSubmit(1, 81)""></div><div class = Button2><input type=""button"" id = ""button2"" value=""2"" onClick = ""pressSubmit(2, 81)""></div><div class = Button3><input type=""button"" id = ""button3"" value=""3"" onClick = ""pressSubmit(3, 81)""></div><div class = Button4><input type=""button"" id = ""button4"" value=""4"" onClick = ""pressSubmit(4, 81)""></div><div class = Button5><input type=""button"" id = ""button5"" value=""5"" onClick = ""pressSubmit(5, 81)""></div><div class = Button6><input type=""button"" id = ""button6"" value=""6"" onClick = ""pressSubmit(6, 81)""></div><div class = Button7><input type=""button"" id = ""button7"" value=""7"" onClick = ""pressSubmit(7, 81)""></div></div></div></div>","81","3520","28","3","Musketeers.bmp","","","","","","","","",""
"","3329","81","3329","-1","pre_task","poldrack-single-stim","31","116785","0.0-1.0-29.0","go_nogo","true","0","","<div class = bigBox><div class = pictureBox><img class='img.displayed' src='/static/experiments/gng_food/images/redvines_small.bmp'></img></div><div class = sliderbox><div class = buttonBox><div class = Button1><input type=""button"" id = ""button1"" value=""1"" onClick = ""pressSubmit(1, 81)""></div><div class = Button2><input type=""button"" id = ""button2"" value=""2"" onClick = ""pressSubmit(2, 81)""></div><div class = Button3><input type=""button"" id = ""button3"" value=""3"" onClick = ""pressSubmit(3, 81)""></div><div class = Button4><input type=""button"" id = ""button4"" value=""4"" onClick = ""pressSubmit(4, 81)""></div><div class = Button5><input type=""button"" id = ""button5"" value=""5"" onClick = ""pressSubmit(5, 81)""></div><div class = Button6><input type=""button"" id = ""button6"" value=""6"" onClick = ""pressSubmit(6, 81)""></div><div class = Button7><input type=""button"" id = ""button7"" value=""7"" onClick = ""pressSubmit(7, 81)""></div></div></div></div>","81","3329","29","3","redvines_small.bmp","","","","","","","","",""
"","2362","81","2362","-1","pre_task","poldrack-single-stim","32","119148","0.0-1.0-30.0","go_nogo","true","0","","<div class = bigBox><div class = pictureBox><img class='img.displayed' src='/static/experiments/gng_food/images/mixedyogart.bmp'></img></div><div class = sliderbox><div class = buttonBox><div class = Button1><input type=""button"" id = ""button1"" value=""1"" onClick = ""pressSubmit(1, 81)""></div><div class = Button2><input type=""button"" id = ""button2"" value=""2"" onClick = ""pressSubmit(2, 81)""></div><div class = Button3><input type=""button"" id = ""button3"" value=""3"" onClick = ""pressSubmit(3, 81)""></div><div class = Button4><input type=""button"" id = ""button4"" value=""4"" onClick = ""pressSubmit(4, 81)""></div><div class = Button5><input type=""button"" id = ""button5"" value=""5"" onClick = ""pressSubmit(5, 81)""></div><div class = Button6><input type=""button"" id = ""button6"" value=""6"" onClick = ""pressSubmit(6, 81)""></div><div class = Button7><input type=""button"" id = ""button7"" value=""7"" onClick = ""pressSubmit(7, 81)""></div></div></div></div>","81","2362","30","3","mixedyogart.bmp","","","","","","","","",""
"","1630","81","1630","-1","pre_task","poldrack-single-stim","33","120779","0.0-1.0-31.0","go_nogo","true","0","","<div class = bigBox><div class = pictureBox><img class='img.displayed' src='/static/experiments/gng_food/images/ffraspsorbet.bmp'></img></div><div class = sliderbox><div class = buttonBox><div class = Button1><input type=""button"" id = ""button1"" value=""1"" onClick = ""pressSubmit(1, 81)""></div><div class = Button2><input type=""button"" id = ""button2"" value=""2"" onClick = ""pressSubmit(2, 81)""></div><div class = Button3><input type=""button"" id = ""button3"" value=""3"" onClick = ""pressSubmit(3, 81)""></div><div class = Button4><input type=""button"" id = ""button4"" value=""4"" onClick = ""pressSubmit(4, 81)""></div><div class = Button5><input type=""button"" id = ""button5"" value=""5"" onClick = ""pressSubmit(5, 81)""></div><div class = Button6><input type=""button"" id = ""button6"" value=""6"" onClick = ""pressSubmit(6, 81)""></div><div class = Button7><input type=""button"" id = ""button7"" value=""7"" onClick = ""pressSubmit(7, 81)""></div></div></div></div>","81","1630","31","3","ffraspsorbet.bmp","","","","","","","","",""
"","2046","81","2046","-1","pre_task","poldrack-single-stim","34","122826","0.0-1.0-32.0","go_nogo","true","0","","<div class = bigBox><div class = pictureBox><img class='img.displayed' src='/static/experiments/gng_food/images/RiceKrispyTreat_small.bmp'></img></div><div class = sliderbox><div class = buttonBox><div class = Button1><input type=""button"" id = ""button1"" value=""1"" onClick = ""pressSubmit(1, 81)""></div><div class = Button2><input type=""button"" id = ""button2"" value=""2"" onClick = ""pressSubmit(2, 81)""></div><div class = Button3><input type=""button"" id = ""button3"" value=""3"" onClick = ""pressSubmit(3, 81)""></div><div class = Button4><input type=""button"" id = ""button4"" value=""4"" onClick = ""pressSubmit(4, 81)""></div><div class = Button5><input type=""button"" id = ""button5"" value=""5"" onClick = ""pressSubmit(5, 81)""></div><div class = Button6><input type=""button"" id = ""button6"" value=""6"" onClick = ""pressSubmit(6, 81)""></div><div class = Button7><input type=""button"" id = ""button7"" value=""7"" onClick = ""pressSubmit(7, 81)""></div></div></div></div>","81","2046","32","7","RiceKrispyTreat_small.bmp","","","","","","","","",""
"","1867","81","1867","-1","pre_task","poldrack-single-stim","35","124694","0.0-1.0-33.0","go_nogo","true","0","","<div class = bigBox><div class = pictureBox><img class='img.displayed' src='/static/experiments/gng_food/images/butterfinger.bmp'></img></div><div class = sliderbox><div class = buttonBox><div class = Button1><input type=""button"" id = ""button1"" value=""1"" onClick = ""pressSubmit(1, 81)""></div><div class = Button2><input type=""button"" id = ""button2"" value=""2"" onClick = ""pressSubmit(2, 81)""></div><div class = Button3><input type=""button"" id = ""button3"" value=""3"" onClick = ""pressSubmit(3, 81)""></div><div class = Button4><input type=""button"" id = ""button4"" value=""4"" onClick = ""pressSubmit(4, 81)""></div><div class = Button5><input type=""button"" id = ""button5"" value=""5"" onClick = ""pressSubmit(5, 81)""></div><div class = Button6><input type=""button"" id = ""button6"" value=""6"" onClick = ""pressSubmit(6, 81)""></div><div class = Button7><input type=""button"" id = ""button7"" value=""7"" onClick = ""pressSubmit(7, 81)""></div></div></div></div>","81","1867","33","4","butterfinger.bmp","","","","","","","","",""
"","6018","81","6018","-1","pre_task","poldrack-single-stim","36","130713","0.0-1.0-34.0","go_nogo","true","0","","<div class = bigBox><div class = pictureBox><img class='img.displayed' src='/static/experiments/gng_food/images/slimfastV.bmp'></img></div><div class = sliderbox><div class = buttonBox><div class = Button1><input type=""button"" id = ""button1"" value=""1"" onClick = ""pressSubmit(1, 81)""></div><div class = Button2><input type=""button"" id = ""button2"" value=""2"" onClick = ""pressSubmit(2, 81)""></div><div class = Button3><input type=""button"" id = ""button3"" value=""3"" onClick = ""pressSubmit(3, 81)""></div><div class = Button4><input type=""button"" id = ""button4"" value=""4"" onClick = ""pressSubmit(4, 81)""></div><div class = Button5><input type=""button"" id = ""button5"" value=""5"" onClick = ""pressSubmit(5, 81)""></div><div class = Button6><input type=""button"" id = ""button6"" value=""6"" onClick = ""pressSubmit(6, 81)""></div><div class = Button7><input type=""button"" id = ""button7"" value=""7"" onClick = ""pressSubmit(7, 81)""></div></div></div></div>","81","6018","34","3","slimfastV.bmp","","","","","","","","",""
"","1912","81","1912","-1","pre_task","poldrack-single-stim","37","132625","0.0-1.0-35.0","go_nogo","true","0","","<div class = bigBox><div class = pictureBox><img class='img.displayed' src='/static/experiments/gng_food/images/chocpudding.bmp'></img></div><div class = sliderbox><div class = buttonBox><div class = Button1><input type=""button"" id = ""button1"" value=""1"" onClick = ""pressSubmit(1, 81)""></div><div class = Button2><input type=""button"" id = ""button2"" value=""2"" onClick = ""pressSubmit(2, 81)""></div><div class = Button3><input type=""button"" id = ""button3"" value=""3"" onClick = ""pressSubmit(3, 81)""></div><div class = Button4><input type=""button"" id = ""button4"" value=""4"" onClick = ""pressSubmit(4, 81)""></div><div class = Button5><input type=""button"" id = ""button5"" value=""5"" onClick = ""pressSubmit(5, 81)""></div><div class = Button6><input type=""button"" id = ""button6"" value=""6"" onClick = ""pressSubmit(6, 81)""></div><div class = Button7><input type=""button"" id = ""button7"" value=""7"" onClick = ""pressSubmit(7, 81)""></div></div></div></div>","81","1912","35","4","chocpudding.bmp","","","","","","","","",""
"","2710","81","2710","-1","pre_task","poldrack-single-stim","38","135336","0.0-1.0-36.0","go_nogo","true","0","","<div class = bigBox><div class = pictureBox><img class='img.displayed' src='/static/experiments/gng_food/images/ChocolateDonuts.bmp'></img></div><div class = sliderbox><div class = buttonBox><div class = Button1><input type=""button"" id = ""button1"" value=""1"" onClick = ""pressSubmit(1, 81)""></div><div class = Button2><input type=""button"" id = ""button2"" value=""2"" onClick = ""pressSubmit(2, 81)""></div><div class = Button3><input type=""button"" id = ""button3"" value=""3"" onClick = ""pressSubmit(3, 81)""></div><div class = Button4><input type=""button"" id = ""button4"" value=""4"" onClick = ""pressSubmit(4, 81)""></div><div class = Button5><input type=""button"" id = ""button5"" value=""5"" onClick = ""pressSubmit(5, 81)""></div><div class = Button6><input type=""button"" id = ""button6"" value=""6"" onClick = ""pressSubmit(6, 81)""></div><div class = Button7><input type=""button"" id = ""button7"" value=""7"" onClick = ""pressSubmit(7, 81)""></div></div></div></div>","81","2710","36","3","ChocolateDonuts.bmp","","","","","","","","",""
"","1326","81","1326","-1","pre_task","poldrack-single-stim","39","136664","0.0-1.0-37.0","go_nogo","true","0","","<div class = bigBox><div class = pictureBox><img class='img.displayed' src='/static/experiments/gng_food/images/SourSkittles.bmp'></img></div><div class = sliderbox><div class = buttonBox><div class = Button1><input type=""button"" id = ""button1"" value=""1"" onClick = ""pressSubmit(1, 81)""></div><div class = Button2><input type=""button"" id = ""button2"" value=""2"" onClick = ""pressSubmit(2, 81)""></div><div class = Button3><input type=""button"" id = ""button3"" value=""3"" onClick = ""pressSubmit(3, 81)""></div><div class = Button4><input type=""button"" id = ""button4"" value=""4"" onClick = ""pressSubmit(4, 81)""></div><div class = Button5><input type=""button"" id = ""button5"" value=""5"" onClick = ""pressSubmit(5, 81)""></div><div class = Button6><input type=""button"" id = ""button6"" value=""6"" onClick = ""pressSubmit(6, 81)""></div><div class = Button7><input type=""button"" id = ""button7"" value=""7"" onClick = ""pressSubmit(7, 81)""></div></div></div></div>","81","1326","37","3","SourSkittles.bmp","","","","","","","","",""
"","1991","81","1991","-1","pre_task","poldrack-single-stim","40","138655","0.0-1.0-38.0","go_nogo","true","0","","<div class = bigBox><div class = pictureBox><img class='img.displayed' src='/static/experiments/gng_food/images/TeddyGrahamschocolate.bmp'></img></div><div class = sliderbox><div class = buttonBox><div class = Button1><input type=""button"" id = ""button1"" value=""1"" onClick = ""pressSubmit(1, 81)""></div><div class = Button2><input type=""button"" id = ""button2"" value=""2"" onClick = ""pressSubmit(2, 81)""></div><div class = Button3><input type=""button"" id = ""button3"" value=""3"" onClick = ""pressSubmit(3, 81)""></div><div class = Button4><input type=""button"" id = ""button4"" value=""4"" onClick = ""pressSubmit(4, 81)""></div><div class = Button5><input type=""button"" id = ""button5"" value=""5"" onClick = ""pressSubmit(5, 81)""></div><div class = Button6><input type=""button"" id = ""button6"" value=""6"" onClick = ""pressSubmit(6, 81)""></div><div class = Button7><input type=""button"" id = ""button7"" value=""7"" onClick = ""pressSubmit(7, 81)""></div></div></div></div>","81","1991","38","6","TeddyGrahamschocolate.bmp","","","","","","","","",""
"","1631","81","1631","-1","pre_task","poldrack-single-stim","41","140286","0.0-1.0-39.0","go_nogo","true","0","","<div class = bigBox><div class = pictureBox><img class='img.displayed' src='/static/experiments/gng_food/images/keeblerrainbow.bmp'></img></div><div class = sliderbox><div class = buttonBox><div class = Button1><input type=""button"" id = ""button1"" value=""1"" onClick = ""pressSubmit(1, 81)""></div><div class = Button2><input type=""button"" id = ""button2"" value=""2"" onClick = ""pressSubmit(2, 81)""></div><div class = Button3><input type=""button"" id = ""button3"" value=""3"" onClick = ""pressSubmit(3, 81)""></div><div class = Button4><input type=""button"" id = ""button4"" value=""4"" onClick = ""pressSubmit(4, 81)""></div><div class = Button5><input type=""button"" id = ""button5"" value=""5"" onClick = ""pressSubmit(5, 81)""></div><div class = Button6><input type=""button"" id = ""button6"" value=""6"" onClick = ""pressSubmit(6, 81)""></div><div class = Button7><input type=""button"" id = ""button7"" value=""7"" onClick = ""pressSubmit(7, 81)""></div></div></div></div>","81","1631","39","6","keeblerrainbow.bmp","","","","","","","","",""
"","3813","81","3813","-1","pre_task","poldrack-single-stim","42","144100","0.0-1.0-40.0","go_nogo","true","0","","<div class = bigBox><div class = pictureBox><img class='img.displayed' src='/static/experiments/gng_food/images/jollyranchergreen.bmp'></img></div><div class = sliderbox><div class = buttonBox><div class = Button1><input type=""button"" id = ""button1"" value=""1"" onClick = ""pressSubmit(1, 81)""></div><div class = Button2><input type=""button"" id = ""button2"" value=""2"" onClick = ""pressSubmit(2, 81)""></div><div class = Button3><input type=""button"" id = ""button3"" value=""3"" onClick = ""pressSubmit(3, 81)""></div><div class = Button4><input type=""button"" id = ""button4"" value=""4"" onClick = ""pressSubmit(4, 81)""></div><div class = Button5><input type=""button"" id = ""button5"" value=""5"" onClick = ""pressSubmit(5, 81)""></div><div class = Button6><input type=""button"" id = ""button6"" value=""6"" onClick = ""pressSubmit(6, 81)""></div><div class = Button7><input type=""button"" id = ""button7"" value=""7"" onClick = ""pressSubmit(7, 81)""></div></div></div></div>","81","3813","40","2","jollyranchergreen.bmp","","","","","","","","",""
"","3317","81","3317","-1","pre_task","poldrack-single-stim","43","147419","0.0-1.0-41.0","go_nogo","true","0","","<div class = bigBox><div class = pictureBox><img class='img.displayed' src='/static/experiments/gng_food/images/FrostedFlakes.bmp'></img></div><div class = sliderbox><div class = buttonBox><div class = Button1><input type=""button"" id = ""button1"" value=""1"" onClick = ""pressSubmit(1, 81)""></div><div class = Button2><input type=""button"" id = ""button2"" value=""2"" onClick = ""pressSubmit(2, 81)""></div><div class = Button3><input type=""button"" id = ""button3"" value=""3"" onClick = ""pressSubmit(3, 81)""></div><div class = Button4><input type=""button"" id = ""button4"" value=""4"" onClick = ""pressSubmit(4, 81)""></div><div class = Button5><input type=""button"" id = ""button5"" value=""5"" onClick = ""pressSubmit(5, 81)""></div><div class = Button6><input type=""button"" id = ""button6"" value=""6"" onClick = ""pressSubmit(6, 81)""></div><div class = Button7><input type=""button"" id = ""button7"" value=""7"" onClick = ""pressSubmit(7, 81)""></div></div></div></div>","81","3317","41","4","FrostedFlakes.bmp","","","","","","","","",""
"","5106","81","5106","-1","pre_task","poldrack-single-stim","44","152526","0.0-1.0-42.0","go_nogo","true","0","","<div class = bigBox><div class = pictureBox><img class='img.displayed' src='/static/experiments/gng_food/images/Cupcakes.bmp'></img></div><div class = sliderbox><div class = buttonBox><div class = Button1><input type=""button"" id = ""button1"" value=""1"" onClick = ""pressSubmit(1, 81)""></div><div class = Button2><input type=""button"" id = ""button2"" value=""2"" onClick = ""pressSubmit(2, 81)""></div><div class = Button3><input type=""button"" id = ""button3"" value=""3"" onClick = ""pressSubmit(3, 81)""></div><div class = Button4><input type=""button"" id = ""button4"" value=""4"" onClick = ""pressSubmit(4, 81)""></div><div class = Button5><input type=""button"" id = ""button5"" value=""5"" onClick = ""pressSubmit(5, 81)""></div><div class = Button6><input type=""button"" id = ""button6"" value=""6"" onClick = ""pressSubmit(6, 81)""></div><div class = Button7><input type=""button"" id = ""button7"" value=""7"" onClick = ""pressSubmit(7, 81)""></div></div></div></div>","81","5106","42","4","Cupcakes.bmp","","","","","","","","",""
"","3201","81","3201","-1","pre_task","poldrack-single-stim","45","155729","0.0-1.0-43.0","go_nogo","true","0","","<div class = bigBox><div class = pictureBox><img class='img.displayed' src='/static/experiments/gng_food/images/Ruffles.bmp'></img></div><div class = sliderbox><div class = buttonBox><div class = Button1><input type=""button"" id = ""button1"" value=""1"" onClick = ""pressSubmit(1, 81)""></div><div class = Button2><input type=""button"" id = ""button2"" value=""2"" onClick = ""pressSubmit(2, 81)""></div><div class = Button3><input type=""button"" id = ""button3"" value=""3"" onClick = ""pressSubmit(3, 81)""></div><div class = Button4><input type=""button"" id = ""button4"" value=""4"" onClick = ""pressSubmit(4, 81)""></div><div class = Button5><input type=""button"" id = ""button5"" value=""5"" onClick = ""pressSubmit(5, 81)""></div><div class = Button6><input type=""button"" id = ""button6"" value=""6"" onClick = ""pressSubmit(6, 81)""></div><div class = Button7><input type=""button"" id = ""button7"" value=""7"" onClick = ""pressSubmit(7, 81)""></div></div></div></div>","81","3201","43","6","Ruffles.bmp","","","","","","","","",""
"","1905","81","1905","-1","pre_task","poldrack-single-stim","46","157634","0.0-1.0-44.0","go_nogo","true","0","","<div class = bigBox><div class = pictureBox><img class='img.displayed' src='/static/experiments/gng_food/images/Twix.bmp'></img></div><div class = sliderbox><div class = buttonBox><div class = Button1><input type=""button"" id = ""button1"" value=""1"" onClick = ""pressSubmit(1, 81)""></div><div class = Button2><input type=""button"" id = ""button2"" value=""2"" onClick = ""pressSubmit(2, 81)""></div><div class = Button3><input type=""button"" id = ""button3"" value=""3"" onClick = ""pressSubmit(3, 81)""></div><div class = Button4><input type=""button"" id = ""button4"" value=""4"" onClick = ""pressSubmit(4, 81)""></div><div class = Button5><input type=""button"" id = ""button5"" value=""5"" onClick = ""pressSubmit(5, 81)""></div><div class = Button6><input type=""button"" id = ""button6"" value=""6"" onClick = ""pressSubmit(6, 81)""></div><div class = Button7><input type=""button"" id = ""button7"" value=""7"" onClick = ""pressSubmit(7, 81)""></div></div></div></div>","81","1905","44","6","Twix.bmp","","","","","","","","",""
"","2001","81","2001","-1","pre_task","poldrack-single-stim","47","159637","0.0-1.0-45.0","go_nogo","true","0","","<div class = bigBox><div class = pictureBox><img class='img.displayed' src='/static/experiments/gng_food/images/TootsieRolls.bmp'></img></div><div class = sliderbox><div class = buttonBox><div class = Button1><input type=""button"" id = ""button1"" value=""1"" onClick = ""pressSubmit(1, 81)""></div><div class = Button2><input type=""button"" id = ""button2"" value=""2"" onClick = ""pressSubmit(2, 81)""></div><div class = Button3><input type=""button"" id = ""button3"" value=""3"" onClick = ""pressSubmit(3, 81)""></div><div class = Button4><input type=""button"" id = ""button4"" value=""4"" onClick = ""pressSubmit(4, 81)""></div><div class = Button5><input type=""button"" id = ""button5"" value=""5"" onClick = ""pressSubmit(5, 81)""></div><div class = Button6><input type=""button"" id = ""button6"" value=""6"" onClick = ""pressSubmit(6, 81)""></div><div class = Button7><input type=""button"" id = ""button7"" value=""7"" onClick = ""pressSubmit(7, 81)""></div></div></div></div>","81","2001","45","2","TootsieRolls.bmp","","","","","","","","",""
"","5602","81","5602","-1","pre_task","poldrack-single-stim","48","165239","0.0-1.0-46.0","go_nogo","true","0","","<div class = bigBox><div class = pictureBox><img class='img.displayed' src='/static/experiments/gng_food/images/PopTartsStrawberry.bmp'></img></div><div class = sliderbox><div class = buttonBox><div class = Button1><input type=""button"" id = ""button1"" value=""1"" onClick = ""pressSubmit(1, 81)""></div><div class = Button2><input type=""button"" id = ""button2"" value=""2"" onClick = ""pressSubmit(2, 81)""></div><div class = Button3><input type=""button"" id = ""button3"" value=""3"" onClick = ""pressSubmit(3, 81)""></div><div class = Button4><input type=""button"" id = ""button4"" value=""4"" onClick = ""pressSubmit(4, 81)""></div><div class = Button5><input type=""button"" id = ""button5"" value=""5"" onClick = ""pressSubmit(5, 81)""></div><div class = Button6><input type=""button"" id = ""button6"" value=""6"" onClick = ""pressSubmit(6, 81)""></div><div class = Button7><input type=""button"" id = ""button7"" value=""7"" onClick = ""pressSubmit(7, 81)""></div></div></div></div>","81","5602","46","4","PopTartsStrawberry.bmp","","","","","","","","",""
"","2440","81","2440","-1","pre_task","poldrack-single-stim","49","167680","0.0-1.0-47.0","go_nogo","true","0","","<div class = bigBox><div class = pictureBox><img class='img.displayed' src='/static/experiments/gng_food/images/FlamingCheetos.bmp'></img></div><div class = sliderbox><div class = buttonBox><div class = Button1><input type=""button"" id = ""button1"" value=""1"" onClick = ""pressSubmit(1, 81)""></div><div class = Button2><input type=""button"" id = ""button2"" value=""2"" onClick = ""pressSubmit(2, 81)""></div><div class = Button3><input type=""button"" id = ""button3"" value=""3"" onClick = ""pressSubmit(3, 81)""></div><div class = Button4><input type=""button"" id = ""button4"" value=""4"" onClick = ""pressSubmit(4, 81)""></div><div class = Button5><input type=""button"" id = ""button5"" value=""5"" onClick = ""pressSubmit(5, 81)""></div><div class = Button6><input type=""button"" id = ""button6"" value=""6"" onClick = ""pressSubmit(6, 81)""></div><div class = Button7><input type=""button"" id = ""button7"" value=""7"" onClick = ""pressSubmit(7, 81)""></div></div></div></div>","81","2440","47","2","FlamingCheetos.bmp","","","","","","","","",""
"","2732","81","2732","-1","pre_task","poldrack-single-stim","50","170414","0.0-1.0-48.0","go_nogo","true","0","","<div class = bigBox><div class = pictureBox><img class='img.displayed' src='/static/experiments/gng_food/images/bbqgoldfish.bmp'></img></div><div class = sliderbox><div class = buttonBox><div class = Button1><input type=""button"" id = ""button1"" value=""1"" onClick = ""pressSubmit(1, 81)""></div><div class = Button2><input type=""button"" id = ""button2"" value=""2"" onClick = ""pressSubmit(2, 81)""></div><div class = Button3><input type=""button"" id = ""button3"" value=""3"" onClick = ""pressSubmit(3, 81)""></div><div class = Button4><input type=""button"" id = ""button4"" value=""4"" onClick = ""pressSubmit(4, 81)""></div><div class = Button5><input type=""button"" id = ""button5"" value=""5"" onClick = ""pressSubmit(5, 81)""></div><div class = Button6><input type=""button"" id = ""button6"" value=""6"" onClick = ""pressSubmit(6, 81)""></div><div class = Button7><input type=""button"" id = ""button7"" value=""7"" onClick = ""pressSubmit(7, 81)""></div></div></div></div>","81","2732","48","4","bbqgoldfish.bmp","","","","","","","","",""
"","2216","81","2216","-1","pre_task","poldrack-single-stim","51","172630","0.0-1.0-49.0","go_nogo","true","0","","<div class = bigBox><div class = pictureBox><img class='img.displayed' src='/static/experiments/gng_food/images/TeddyGrahamsCinnamon.bmp'></img></div><div class = sliderbox><div class = buttonBox><div class = Button1><input type=""button"" id = ""button1"" value=""1"" onClick = ""pressSubmit(1, 81)""></div><div class = Button2><input type=""button"" id = ""button2"" value=""2"" onClick = ""pressSubmit(2, 81)""></div><div class = Button3><input type=""button"" id = ""button3"" value=""3"" onClick = ""pressSubmit(3, 81)""></div><div class = Button4><input type=""button"" id = ""button4"" value=""4"" onClick = ""pressSubmit(4, 81)""></div><div class = Button5><input type=""button"" id = ""button5"" value=""5"" onClick = ""pressSubmit(5, 81)""></div><div class = Button6><input type=""button"" id = ""button6"" value=""6"" onClick = ""pressSubmit(6, 81)""></div><div class = Button7><input type=""button"" id = ""button7"" value=""7"" onClick = ""pressSubmit(7, 81)""></div></div></div></div>","81","2216","49","5","TeddyGrahamsCinnamon.bmp","","","","","","","","",""
"","3858","81","3858","-1","pre_task","poldrack-single-stim","52","176489","0.0-1.0-50.0","go_nogo","true","0","","<div class = bigBox><div class = pictureBox><img class='img.displayed' src='/static/experiments/gng_food/images/ChipsAhoy_small.bmp'></img></div><div class = sliderbox><div class = buttonBox><div class = Button1><input type=""button"" id = ""button1"" value=""1"" onClick = ""pressSubmit(1, 81)""></div><div class = Button2><input type=""button"" id = ""button2"" value=""2"" onClick = ""pressSubmit(2, 81)""></div><div class = Button3><input type=""button"" id = ""button3"" value=""3"" onClick = ""pressSubmit(3, 81)""></div><div class = Button4><input type=""button"" id = ""button4"" value=""4"" onClick = ""pressSubmit(4, 81)""></div><div class = Button5><input type=""button"" id = ""button5"" value=""5"" onClick = ""pressSubmit(5, 81)""></div><div class = Button6><input type=""button"" id = ""button6"" value=""6"" onClick = ""pressSubmit(6, 81)""></div><div class = Button7><input type=""button"" id = ""button7"" value=""7"" onClick = ""pressSubmit(7, 81)""></div></div></div></div>","81","3858","50","6","ChipsAhoy_small.bmp","","","","","","","","",""
"","3138","81","3138","-1","pre_task","poldrack-single-stim","53","179628","0.0-1.0-51.0","go_nogo","true","0","","<div class = bigBox><div class = pictureBox><img class='img.displayed' src='/static/experiments/gng_food/images/SnoBall.bmp'></img></div><div class = sliderbox><div class = buttonBox><div class = Button1><input type=""button"" id = ""button1"" value=""1"" onClick = ""pressSubmit(1, 81)""></div><div class = Button2><input type=""button"" id = ""button2"" value=""2"" onClick = ""pressSubmit(2, 81)""></div><div class = Button3><input type=""button"" id = ""button3"" value=""3"" onClick = ""pressSubmit(3, 81)""></div><div class = Button4><input type=""button"" id = ""button4"" value=""4"" onClick = ""pressSubmit(4, 81)""></div><div class = Button5><input type=""button"" id = ""button5"" value=""5"" onClick = ""pressSubmit(5, 81)""></div><div class = Button6><input type=""button"" id = ""button6"" value=""6"" onClick = ""pressSubmit(6, 81)""></div><div class = Button7><input type=""button"" id = ""button7"" value=""7"" onClick = ""pressSubmit(7, 81)""></div></div></div></div>","81","3138","51","3","SnoBall.bmp","","","","","","","","",""
"","3779","81","3779","-1","pre_task","poldrack-single-stim","54","183408","0.0-1.0-52.0","go_nogo","true","0","","<div class = bigBox><div class = pictureBox><img class='img.displayed' src='/static/experiments/gng_food/images/brocollincauliflower.bmp'></img></div><div class = sliderbox><div class = buttonBox><div class = Button1><input type=""button"" id = ""button1"" value=""1"" onClick = ""pressSubmit(1, 81)""></div><div class = Button2><input type=""button"" id = ""button2"" value=""2"" onClick = ""pressSubmit(2, 81)""></div><div class = Button3><input type=""button"" id = ""button3"" value=""3"" onClick = ""pressSubmit(3, 81)""></div><div class = Button4><input type=""button"" id = ""button4"" value=""4"" onClick = ""pressSubmit(4, 81)""></div><div class = Button5><input type=""button"" id = ""button5"" value=""5"" onClick = ""pressSubmit(5, 81)""></div><div class = Button6><input type=""button"" id = ""button6"" value=""6"" onClick = ""pressSubmit(6, 81)""></div><div class = Button7><input type=""button"" id = ""button7"" value=""7"" onClick = ""pressSubmit(7, 81)""></div></div></div></div>","81","3779","52","4","brocollincauliflower.bmp","","","","","","","","",""
"","4791","81","4791","-1","pre_task","poldrack-single-stim","55","188201","0.0-1.0-53.0","go_nogo","true","0","","<div class = bigBox><div class = pictureBox><img class='img.displayed' src='/static/experiments/gng_food/images/wheatcrisps.bmp'></img></div><div class = sliderbox><div class = buttonBox><div class = Button1><input type=""button"" id = ""button1"" value=""1"" onClick = ""pressSubmit(1, 81)""></div><div class = Button2><input type=""button"" id = ""button2"" value=""2"" onClick = ""pressSubmit(2, 81)""></div><div class = Button3><input type=""button"" id = ""button3"" value=""3"" onClick = ""pressSubmit(3, 81)""></div><div class = Button4><input type=""button"" id = ""button4"" value=""4"" onClick = ""pressSubmit(4, 81)""></div><div class = Button5><input type=""button"" id = ""button5"" value=""5"" onClick = ""pressSubmit(5, 81)""></div><div class = Button6><input type=""button"" id = ""button6"" value=""6"" onClick = ""pressSubmit(6, 81)""></div><div class = Button7><input type=""button"" id = ""button7"" value=""7"" onClick = ""pressSubmit(7, 81)""></div></div></div></div>","81","4791","53","4","wheatcrisps.bmp","","","","","","","","",""
"","1799","81","1799","-1","pre_task","poldrack-single-stim","56","190001","0.0-1.0-54.0","go_nogo","true","0","","<div class = bigBox><div class = pictureBox><img class='img.displayed' src='/static/experiments/gng_food/images/slimjim.bmp'></img></div><div class = sliderbox><div class = buttonBox><div class = Button1><input type=""button"" id = ""button1"" value=""1"" onClick = ""pressSubmit(1, 81)""></div><div class = Button2><input type=""button"" id = ""button2"" value=""2"" onClick = ""pressSubmit(2, 81)""></div><div class = Button3><input type=""button"" id = ""button3"" value=""3"" onClick = ""pressSubmit(3, 81)""></div><div class = Button4><input type=""button"" id = ""button4"" value=""4"" onClick = ""pressSubmit(4, 81)""></div><div class = Button5><input type=""button"" id = ""button5"" value=""5"" onClick = ""pressSubmit(5, 81)""></div><div class = Button6><input type=""button"" id = ""button6"" value=""6"" onClick = ""pressSubmit(6, 81)""></div><div class = Button7><input type=""button"" id = ""button7"" value=""7"" onClick = ""pressSubmit(7, 81)""></div></div></div></div>","81","1799","54","1","slimjim.bmp","","","","","","","","",""
"","2857","81","2857","-1","pre_task","poldrack-single-stim","57","192858","0.0-1.0-55.0","go_nogo","true","0","","<div class = bigBox><div class = pictureBox><img class='img.displayed' src='/static/experiments/gng_food/images/blueberryyogart.bmp'></img></div><div class = sliderbox><div class = buttonBox><div class = Button1><input type=""button"" id = ""button1"" value=""1"" onClick = ""pressSubmit(1, 81)""></div><div class = Button2><input type=""button"" id = ""button2"" value=""2"" onClick = ""pressSubmit(2, 81)""></div><div class = Button3><input type=""button"" id = ""button3"" value=""3"" onClick = ""pressSubmit(3, 81)""></div><div class = Button4><input type=""button"" id = ""button4"" value=""4"" onClick = ""pressSubmit(4, 81)""></div><div class = Button5><input type=""button"" id = ""button5"" value=""5"" onClick = ""pressSubmit(5, 81)""></div><div class = Button6><input type=""button"" id = ""button6"" value=""6"" onClick = ""pressSubmit(6, 81)""></div><div class = Button7><input type=""button"" id = ""button7"" value=""7"" onClick = ""pressSubmit(7, 81)""></div></div></div></div>","81","2857","55","4","blueberryyogart.bmp","","","","","","","","",""
"","2350","81","2350","-1","pre_task","poldrack-single-stim","58","195210","0.0-1.0-56.0","go_nogo","true","0","","<div class = bigBox><div class = pictureBox><img class='img.displayed' src='/static/experiments/gng_food/images/wwmuffin.bmp'></img></div><div class = sliderbox><div class = buttonBox><div class = Button1><input type=""button"" id = ""button1"" value=""1"" onClick = ""pressSubmit(1, 81)""></div><div class = Button2><input type=""button"" id = ""button2"" value=""2"" onClick = ""pressSubmit(2, 81)""></div><div class = Button3><input type=""button"" id = ""button3"" value=""3"" onClick = ""pressSubmit(3, 81)""></div><div class = Button4><input type=""button"" id = ""button4"" value=""4"" onClick = ""pressSubmit(4, 81)""></div><div class = Button5><input type=""button"" id = ""button5"" value=""5"" onClick = ""pressSubmit(5, 81)""></div><div class = Button6><input type=""button"" id = ""button6"" value=""6"" onClick = ""pressSubmit(6, 81)""></div><div class = Button7><input type=""button"" id = ""button7"" value=""7"" onClick = ""pressSubmit(7, 81)""></div></div></div></div>","81","2350","56","4","wwmuffin.bmp","","","","","","","","",""
"","4083","81","4083","-1","pre_task","poldrack-single-stim","59","199293","0.0-1.0-57.0","go_nogo","true","0","","<div class = bigBox><div class = pictureBox><img class='img.displayed' src='/static/experiments/gng_food/images/Dots_one.bmp'></img></div><div class = sliderbox><div class = buttonBox><div class = Button1><input type=""button"" id = ""button1"" value=""1"" onClick = ""pressSubmit(1, 81)""></div><div class = Button2><input type=""button"" id = ""button2"" value=""2"" onClick = ""pressSubmit(2, 81)""></div><div class = Button3><input type=""button"" id = ""button3"" value=""3"" onClick = ""pressSubmit(3, 81)""></div><div class = Button4><input type=""button"" id = ""button4"" value=""4"" onClick = ""pressSubmit(4, 81)""></div><div class = Button5><input type=""button"" id = ""button5"" value=""5"" onClick = ""pressSubmit(5, 81)""></div><div class = Button6><input type=""button"" id = ""button6"" value=""6"" onClick = ""pressSubmit(6, 81)""></div><div class = Button7><input type=""button"" id = ""button7"" value=""7"" onClick = ""pressSubmit(7, 81)""></div></div></div></div>","81","4083","57","4","Dots_one.bmp","","","","","","","","",""
"","2305","81","2305","-1","pre_task","poldrack-single-stim","60","201599","0.0-1.0-58.0","go_nogo","true","0","","<div class = bigBox><div class = pictureBox><img class='img.displayed' src='/static/experiments/gng_food/images/MrGoodbar.bmp'></img></div><div class = sliderbox><div class = buttonBox><div class = Button1><input type=""button"" id = ""button1"" value=""1"" onClick = ""pressSubmit(1, 81)""></div><div class = Button2><input type=""button"" id = ""button2"" value=""2"" onClick = ""pressSubmit(2, 81)""></div><div class = Button3><input type=""button"" id = ""button3"" value=""3"" onClick = ""pressSubmit(3, 81)""></div><div class = Button4><input type=""button"" id = ""button4"" value=""4"" onClick = ""pressSubmit(4, 81)""></div><div class = Button5><input type=""button"" id = ""button5"" value=""5"" onClick = ""pressSubmit(5, 81)""></div><div class = Button6><input type=""button"" id = ""button6"" value=""6"" onClick = ""pressSubmit(6, 81)""></div><div class = Button7><input type=""button"" id = ""button7"" value=""7"" onClick = ""pressSubmit(7, 81)""></div></div></div></div>","81","2305","58","5","MrGoodbar.bmp","","","","","","","","",""
"","4398","81","4398","-1","pre_task","poldrack-single-stim","61","205998","0.0-1.0-59.0","go_nogo","true","0","","<div class = bigBox><div class = pictureBox><img class='img.displayed' src='/static/experiments/gng_food/images/Funyuns_small.bmp'></img></div><div class = sliderbox><div class = buttonBox><div class = Button1><input type=""button"" id = ""button1"" value=""1"" onClick = ""pressSubmit(1, 81)""></div><div class = Button2><input type=""button"" id = ""button2"" value=""2"" onClick = ""pressSubmit(2, 81)""></div><div class = Button3><input type=""button"" id = ""button3"" value=""3"" onClick = ""pressSubmit(3, 81)""></div><div class = Button4><input type=""button"" id = ""button4"" value=""4"" onClick = ""pressSubmit(4, 81)""></div><div class = Button5><input type=""button"" id = ""button5"" value=""5"" onClick = ""pressSubmit(5, 81)""></div><div class = Button6><input type=""button"" id = ""button6"" value=""6"" onClick = ""pressSubmit(6, 81)""></div><div class = Button7><input type=""button"" id = ""button7"" value=""7"" onClick = ""pressSubmit(7, 81)""></div></div></div></div>","81","4398","59","2","Funyuns_small.bmp","","","","","","","","",""
"","4004","81","4004","-1","pre_task","poldrack-single-stim","62","210003","0.0-1.0-60.0","go_nogo","true","0","","<div class = bigBox><div class = pictureBox><img class='img.displayed' src='/static/experiments/gng_food/images/Cheetos.bmp'></img></div><div class = sliderbox><div class = buttonBox><div class = Button1><input type=""button"" id = ""button1"" value=""1"" onClick = ""pressSubmit(1, 81)""></div><div class = Button2><input type=""button"" id = ""button2"" value=""2"" onClick = ""pressSubmit(2, 81)""></div><div class = Button3><input type=""button"" id = ""button3"" value=""3"" onClick = ""pressSubmit(3, 81)""></div><div class = Button4><input type=""button"" id = ""button4"" value=""4"" onClick = ""pressSubmit(4, 81)""></div><div class = Button5><input type=""button"" id = ""button5"" value=""5"" onClick = ""pressSubmit(5, 81)""></div><div class = Button6><input type=""button"" id = ""button6"" value=""6"" onClick = ""pressSubmit(6, 81)""></div><div class = Button7><input type=""button"" id = ""button7"" value=""7"" onClick = ""pressSubmit(7, 81)""></div></div></div></div>","81","4004","60","5","Cheetos.bmp","","","","","","","","",""
"","3092","81","3092","-1","pre_task","poldrack-single-stim","63","213097","0.0-1.0-61.0","go_nogo","true","0","","<div class = bigBox><div class = pictureBox><img class='img.displayed' src='/static/experiments/gng_food/images/PayDay.bmp'></img></div><div class = sliderbox><div class = buttonBox><div class = Button1><input type=""button"" id = ""button1"" value=""1"" onClick = ""pressSubmit(1, 81)""></div><div class = Button2><input type=""button"" id = ""button2"" value=""2"" onClick = ""pressSubmit(2, 81)""></div><div class = Button3><input type=""button"" id = ""button3"" value=""3"" onClick = ""pressSubmit(3, 81)""></div><div class = Button4><input type=""button"" id = ""button4"" value=""4"" onClick = ""pressSubmit(4, 81)""></div><div class = Button5><input type=""button"" id = ""button5"" value=""5"" onClick = ""pressSubmit(5, 81)""></div><div class = Button6><input type=""button"" id = ""button6"" value=""6"" onClick = ""pressSubmit(6, 81)""></div><div class = Button7><input type=""button"" id = ""button7"" value=""7"" onClick = ""pressSubmit(7, 81)""></div></div></div></div>","81","3092","61","4","PayDay.bmp","","","","","","","","",""
"","4093","81","4093","-1","pre_task","poldrack-single-stim","64","217192","0.0-1.0-62.0","go_nogo","true","0","","<div class = bigBox><div class = pictureBox><img class='img.displayed' src='/static/experiments/gng_food/images/sbdietbar.bmp'></img></div><div class = sliderbox><div class = buttonBox><div class = Button1><input type=""button"" id = ""button1"" value=""1"" onClick = ""pressSubmit(1, 81)""></div><div class = Button2><input type=""button"" id = ""button2"" value=""2"" onClick = ""pressSubmit(2, 81)""></div><div class = Button3><input type=""button"" id = ""button3"" value=""3"" onClick = ""pressSubmit(3, 81)""></div><div class = Button4><input type=""button"" id = ""button4"" value=""4"" onClick = ""pressSubmit(4, 81)""></div><div class = Button5><input type=""button"" id = ""button5"" value=""5"" onClick = ""pressSubmit(5, 81)""></div><div class = Button6><input type=""button"" id = ""button6"" value=""6"" onClick = ""pressSubmit(6, 81)""></div><div class = Button7><input type=""button"" id = ""button7"" value=""7"" onClick = ""pressSubmit(7, 81)""></div></div></div></div>","81","4093","62","3","sbdietbar.bmp","","","","","","","","",""
"","2935","81","2935","-1","pre_task","poldrack-single-stim","65","220129","0.0-1.0-63.0","go_nogo","true","0","","<div class = bigBox><div class = pictureBox><img class='img.displayed' src='/static/experiments/gng_food/images/CherryPie.bmp'></img></div><div class = sliderbox><div class = buttonBox><div class = Button1><input type=""button"" id = ""button1"" value=""1"" onClick = ""pressSubmit(1, 81)""></div><div class = Button2><input type=""button"" id = ""button2"" value=""2"" onClick = ""pressSubmit(2, 81)""></div><div class = Button3><input type=""button"" id = ""button3"" value=""3"" onClick = ""pressSubmit(3, 81)""></div><div class = Button4><input type=""button"" id = ""button4"" value=""4"" onClick = ""pressSubmit(4, 81)""></div><div class = Button5><input type=""button"" id = ""button5"" value=""5"" onClick = ""pressSubmit(5, 81)""></div><div class = Button6><input type=""button"" id = ""button6"" value=""6"" onClick = ""pressSubmit(6, 81)""></div><div class = Button7><input type=""button"" id = ""button7"" value=""7"" onClick = ""pressSubmit(7, 81)""></div></div></div></div>","81","2935","63","4","CherryPie.bmp","","","","","","","","",""
"","1641","81","1641","-1","pre_task","poldrack-single-stim","66","221771","0.0-1.0-64.0","go_nogo","true","0","","<div class = bigBox><div class = pictureBox><img class='img.displayed' src='/static/experiments/gng_food/images/Reeses.bmp'></img></div><div class = sliderbox><div class = buttonBox><div class = Button1><input type=""button"" id = ""button1"" value=""1"" onClick = ""pressSubmit(1, 81)""></div><div class = Button2><input type=""button"" id = ""button2"" value=""2"" onClick = ""pressSubmit(2, 81)""></div><div class = Button3><input type=""button"" id = ""button3"" value=""3"" onClick = ""pressSubmit(3, 81)""></div><div class = Button4><input type=""button"" id = ""button4"" value=""4"" onClick = ""pressSubmit(4, 81)""></div><div class = Button5><input type=""button"" id = ""button5"" value=""5"" onClick = ""pressSubmit(5, 81)""></div><div class = Button6><input type=""button"" id = ""button6"" value=""6"" onClick = ""pressSubmit(6, 81)""></div><div class = Button7><input type=""button"" id = ""button7"" value=""7"" onClick = ""pressSubmit(7, 81)""></div></div></div></div>","81","1641","64","5","Reeses.bmp","","","","","","","","",""
"","1641","81","1641","-1","pre_task","poldrack-single-stim","67","223414","0.0-1.0-65.0","go_nogo","true","0","","<div class = bigBox><div class = pictureBox><img class='img.displayed' src='/static/experiments/gng_food/images/BabyRuth.bmp'></img></div><div class = sliderbox><div class = buttonBox><div class = Button1><input type=""button"" id = ""button1"" value=""1"" onClick = ""pressSubmit(1, 81)""></div><div class = Button2><input type=""button"" id = ""button2"" value=""2"" onClick = ""pressSubmit(2, 81)""></div><div class = Button3><input type=""button"" id = ""button3"" value=""3"" onClick = ""pressSubmit(3, 81)""></div><div class = Button4><input type=""button"" id = ""button4"" value=""4"" onClick = ""pressSubmit(4, 81)""></div><div class = Button5><input type=""button"" id = ""button5"" value=""5"" onClick = ""pressSubmit(5, 81)""></div><div class = Button6><input type=""button"" id = ""button6"" value=""6"" onClick = ""pressSubmit(6, 81)""></div><div class = Button7><input type=""button"" id = ""button7"" value=""7"" onClick = ""pressSubmit(7, 81)""></div></div></div></div>","81","1641","65","5","BabyRuth.bmp","","","","","","","","",""
"","3160","81","3160","-1","pre_task","poldrack-single-stim","68","226575","0.0-1.0-66.0","go_nogo","true","0","","<div class = bigBox><div class = pictureBox><img class='img.displayed' src='/static/experiments/gng_food/images/Whatchamacallit.bmp'></img></div><div class = sliderbox><div class = buttonBox><div class = Button1><input type=""button"" id = ""button1"" value=""1"" onClick = ""pressSubmit(1, 81)""></div><div class = Button2><input type=""button"" id = ""button2"" value=""2"" onClick = ""pressSubmit(2, 81)""></div><div class = Button3><input type=""button"" id = ""button3"" value=""3"" onClick = ""pressSubmit(3, 81)""></div><div class = Button4><input type=""button"" id = ""button4"" value=""4"" onClick = ""pressSubmit(4, 81)""></div><div class = Button5><input type=""button"" id = ""button5"" value=""5"" onClick = ""pressSubmit(5, 81)""></div><div class = Button6><input type=""button"" id = ""button6"" value=""6"" onClick = ""pressSubmit(6, 81)""></div><div class = Button7><input type=""button"" id = ""button7"" value=""7"" onClick = ""pressSubmit(7, 81)""></div></div></div></div>","81","3160","66","4","Whatchamacallit.bmp","","","","","","","","",""
"","1506","81","1506","-1","pre_task","poldrack-single-stim","69","228082","0.0-1.0-67.0","go_nogo","true","0","","<div class = bigBox><div class = pictureBox><img class='img.displayed' src='/static/experiments/gng_food/images/Toberlorone.bmp'></img></div><div class = sliderbox><div class = buttonBox><div class = Button1><input type=""button"" id = ""button1"" value=""1"" onClick = ""pressSubmit(1, 81)""></div><div class = Button2><input type=""button"" id = ""button2"" value=""2"" onClick = ""pressSubmit(2, 81)""></div><div class = Button3><input type=""button"" id = ""button3"" value=""3"" onClick = ""pressSubmit(3, 81)""></div><div class = Button4><input type=""button"" id = ""button4"" value=""4"" onClick = ""pressSubmit(4, 81)""></div><div class = Button5><input type=""button"" id = ""button5"" value=""5"" onClick = ""pressSubmit(5, 81)""></div><div class = Button6><input type=""button"" id = ""button6"" value=""6"" onClick = ""pressSubmit(6, 81)""></div><div class = Button7><input type=""button"" id = ""button7"" value=""7"" onClick = ""pressSubmit(7, 81)""></div></div></div></div>","81","1506","67","6","Toberlorone.bmp","","","","","","","","",""
"","5061","81","5061","-1","pre_task","poldrack-single-stim","70","233145","0.0-1.0-68.0","go_nogo","true","0","","<div class = bigBox><div class = pictureBox><img class='img.displayed' src='/static/experiments/gng_food/images/frostedcheerios.bmp'></img></div><div class = sliderbox><div class = buttonBox><div class = Button1><input type=""button"" id = ""button1"" value=""1"" onClick = ""pressSubmit(1, 81)""></div><div class = Button2><input type=""button"" id = ""button2"" value=""2"" onClick = ""pressSubmit(2, 81)""></div><div class = Button3><input type=""button"" id = ""button3"" value=""3"" onClick = ""pressSubmit(3, 81)""></div><div class = Button4><input type=""button"" id = ""button4"" value=""4"" onClick = ""pressSubmit(4, 81)""></div><div class = Button5><input type=""button"" id = ""button5"" value=""5"" onClick = ""pressSubmit(5, 81)""></div><div class = Button6><input type=""button"" id = ""button6"" value=""6"" onClick = ""pressSubmit(6, 81)""></div><div class = Button7><input type=""button"" id = ""button7"" value=""7"" onClick = ""pressSubmit(7, 81)""></div></div></div></div>","81","5061","68","4","frostedcheerios.bmp","","","","","","","","",""
"","4150","81","4150","-1","pre_task","poldrack-single-stim","71","237296","0.0-1.0-69.0","go_nogo","true","0","","<div class = bigBox><div class = pictureBox><img class='img.displayed' src='/static/experiments/gng_food/images/ApplePie.bmp'></img></div><div class = sliderbox><div class = buttonBox><div class = Button1><input type=""button"" id = ""button1"" value=""1"" onClick = ""pressSubmit(1, 81)""></div><div class = Button2><input type=""button"" id = ""button2"" value=""2"" onClick = ""pressSubmit(2, 81)""></div><div class = Button3><input type=""button"" id = ""button3"" value=""3"" onClick = ""pressSubmit(3, 81)""></div><div class = Button4><input type=""button"" id = ""button4"" value=""4"" onClick = ""pressSubmit(4, 81)""></div><div class = Button5><input type=""button"" id = ""button5"" value=""5"" onClick = ""pressSubmit(5, 81)""></div><div class = Button6><input type=""button"" id = ""button6"" value=""6"" onClick = ""pressSubmit(6, 81)""></div><div class = Button7><input type=""button"" id = ""button7"" value=""7"" onClick = ""pressSubmit(7, 81)""></div></div></div></div>","81","4150","69","4","ApplePie.bmp","","","","","","","","",""
"","2688","81","2688","-1","pre_task","poldrack-single-stim","72","239985","0.0-1.0-70.0","go_nogo","true","0","","<div class = bigBox><div class = pictureBox><img class='img.displayed' src='/static/experiments/gng_food/images/snickers.bmp'></img></div><div class = sliderbox><div class = buttonBox><div class = Button1><input type=""button"" id = ""button1"" value=""1"" onClick = ""pressSubmit(1, 81)""></div><div class = Button2><input type=""button"" id = ""button2"" value=""2"" onClick = ""pressSubmit(2, 81)""></div><div class = Button3><input type=""button"" id = ""button3"" value=""3"" onClick = ""pressSubmit(3, 81)""></div><div class = Button4><input type=""button"" id = ""button4"" value=""4"" onClick = ""pressSubmit(4, 81)""></div><div class = Button5><input type=""button"" id = ""button5"" value=""5"" onClick = ""pressSubmit(5, 81)""></div><div class = Button6><input type=""button"" id = ""button6"" value=""6"" onClick = ""pressSubmit(6, 81)""></div><div class = Button7><input type=""button"" id = ""button7"" value=""7"" onClick = ""pressSubmit(7, 81)""></div></div></div></div>","81","2688","70","5","snickers.bmp","","","","","","","","",""
"","2643","81","2643","-1","pre_task","poldrack-single-stim","73","242629","0.0-1.0-71.0","go_nogo","true","0","","<div class = bigBox><div class = pictureBox><img class='img.displayed' src='/static/experiments/gng_food/images/AnimalCrackers.bmp'></img></div><div class = sliderbox><div class = buttonBox><div class = Button1><input type=""button"" id = ""button1"" value=""1"" onClick = ""pressSubmit(1, 81)""></div><div class = Button2><input type=""button"" id = ""button2"" value=""2"" onClick = ""pressSubmit(2, 81)""></div><div class = Button3><input type=""button"" id = ""button3"" value=""3"" onClick = ""pressSubmit(3, 81)""></div><div class = Button4><input type=""button"" id = ""button4"" value=""4"" onClick = ""pressSubmit(4, 81)""></div><div class = Button5><input type=""button"" id = ""button5"" value=""5"" onClick = ""pressSubmit(5, 81)""></div><div class = Button6><input type=""button"" id = ""button6"" value=""6"" onClick = ""pressSubmit(6, 81)""></div><div class = Button7><input type=""button"" id = ""button7"" value=""7"" onClick = ""pressSubmit(7, 81)""></div></div></div></div>","81","2643","71","5","AnimalCrackers.bmp","","","","","","","","",""
"","4263","81","4263","-1","pre_task","poldrack-single-stim","74","246892","0.0-1.0-72.0","go_nogo","true","0","","<div class = bigBox><div class = pictureBox><img class='img.displayed' src='/static/experiments/gng_food/images/sbcrackers.bmp'></img></div><div class = sliderbox><div class = buttonBox><div class = Button1><input type=""button"" id = ""button1"" value=""1"" onClick = ""pressSubmit(1, 81)""></div><div class = Button2><input type=""button"" id = ""button2"" value=""2"" onClick = ""pressSubmit(2, 81)""></div><div class = Button3><input type=""button"" id = ""button3"" value=""3"" onClick = ""pressSubmit(3, 81)""></div><div class = Button4><input type=""button"" id = ""button4"" value=""4"" onClick = ""pressSubmit(4, 81)""></div><div class = Button5><input type=""button"" id = ""button5"" value=""5"" onClick = ""pressSubmit(5, 81)""></div><div class = Button6><input type=""button"" id = ""button6"" value=""6"" onClick = ""pressSubmit(6, 81)""></div><div class = Button7><input type=""button"" id = ""button7"" value=""7"" onClick = ""pressSubmit(7, 81)""></div></div></div></div>","81","4263","72","4","sbcrackers.bmp","","","","","","","","",""
"","2541","81","2541","-1","pre_task","poldrack-single-stim","75","249435","0.0-1.0-73.0","go_nogo","true","0","","<div class = bigBox><div class = pictureBox><img class='img.displayed' src='/static/experiments/gng_food/images/hundredgrand_small.bmp'></img></div><div class = sliderbox><div class = buttonBox><div class = Button1><input type=""button"" id = ""button1"" value=""1"" onClick = ""pressSubmit(1, 81)""></div><div class = Button2><input type=""button"" id = ""button2"" value=""2"" onClick = ""pressSubmit(2, 81)""></div><div class = Button3><input type=""button"" id = ""button3"" value=""3"" onClick = ""pressSubmit(3, 81)""></div><div class = Button4><input type=""button"" id = ""button4"" value=""4"" onClick = ""pressSubmit(4, 81)""></div><div class = Button5><input type=""button"" id = ""button5"" value=""5"" onClick = ""pressSubmit(5, 81)""></div><div class = Button6><input type=""button"" id = ""button6"" value=""6"" onClick = ""pressSubmit(6, 81)""></div><div class = Button7><input type=""button"" id = ""button7"" value=""7"" onClick = ""pressSubmit(7, 81)""></div></div></div></div>","81","2541","73","4","hundredgrand_small.bmp","","","","","","","","",""
"","4421","81","4421","-1","pre_task","poldrack-single-stim","76","253856","0.0-1.0-74.0","go_nogo","true","0","","<div class = bigBox><div class = pictureBox><img class='img.displayed' src='/static/experiments/gng_food/images/RitzBitz2.bmp'></img></div><div class = sliderbox><div class = buttonBox><div class = Button1><input type=""button"" id = ""button1"" value=""1"" onClick = ""pressSubmit(1, 81)""></div><div class = Button2><input type=""button"" id = ""button2"" value=""2"" onClick = ""pressSubmit(2, 81)""></div><div class = Button3><input type=""button"" id = ""button3"" value=""3"" onClick = ""pressSubmit(3, 81)""></div><div class = Button4><input type=""button"" id = ""button4"" value=""4"" onClick = ""pressSubmit(4, 81)""></div><div class = Button5><input type=""button"" id = ""button5"" value=""5"" onClick = ""pressSubmit(5, 81)""></div><div class = Button6><input type=""button"" id = ""button6"" value=""6"" onClick = ""pressSubmit(6, 81)""></div><div class = Button7><input type=""button"" id = ""button7"" value=""7"" onClick = ""pressSubmit(7, 81)""></div></div></div></div>","81","4421","74","6","RitzBitz2.bmp","","","","","","","","",""
"","1991","81","1991","-1","pre_task","poldrack-single-stim","77","255847","0.0-1.0-75.0","go_nogo","true","0","","<div class = bigBox><div class = pictureBox><img class='img.displayed' src='/static/experiments/gng_food/images/cheezits.bmp'></img></div><div class = sliderbox><div class = buttonBox><div class = Button1><input type=""button"" id = ""button1"" value=""1"" onClick = ""pressSubmit(1, 81)""></div><div class = Button2><input type=""button"" id = ""button2"" value=""2"" onClick = ""pressSubmit(2, 81)""></div><div class = Button3><input type=""button"" id = ""button3"" value=""3"" onClick = ""pressSubmit(3, 81)""></div><div class = Button4><input type=""button"" id = ""button4"" value=""4"" onClick = ""pressSubmit(4, 81)""></div><div class = Button5><input type=""button"" id = ""button5"" value=""5"" onClick = ""pressSubmit(5, 81)""></div><div class = Button6><input type=""button"" id = ""button6"" value=""6"" onClick = ""pressSubmit(6, 81)""></div><div class = Button7><input type=""button"" id = ""button7"" value=""7"" onClick = ""pressSubmit(7, 81)""></div></div></div></div>","81","1991","75","6","cheezits.bmp","","","","","","","","",""
"","5343","81","5343","-1","pre_task","poldrack-single-stim","78","261191","0.0-1.0-76.0","go_nogo","true","0","","<div class = bigBox><div class = pictureBox><img class='img.displayed' src='/static/experiments/gng_food/images/TeddyGrahamsplain_small.bmp'></img></div><div class = sliderbox><div class = buttonBox><div class = Button1><input type=""button"" id = ""button1"" value=""1"" onClick = ""pressSubmit(1, 81)""></div><div class = Button2><input type=""button"" id = ""button2"" value=""2"" onClick = ""pressSubmit(2, 81)""></div><div class = Button3><input type=""button"" id = ""button3"" value=""3"" onClick = ""pressSubmit(3, 81)""></div><div class = Button4><input type=""button"" id = ""button4"" value=""4"" onClick = ""pressSubmit(4, 81)""></div><div class = Button5><input type=""button"" id = ""button5"" value=""5"" onClick = ""pressSubmit(5, 81)""></div><div class = Button6><input type=""button"" id = ""button6"" value=""6"" onClick = ""pressSubmit(6, 81)""></div><div class = Button7><input type=""button"" id = ""button7"" value=""7"" onClick = ""pressSubmit(7, 81)""></div></div></div></div>","81","5343","76","5","TeddyGrahamsplain_small.bmp","","","","","","","","",""
"","4341","81","4341","-1","pre_task","poldrack-single-stim","79","265534","0.0-1.0-77.0","go_nogo","true","0","","<div class = bigBox><div class = pictureBox><img class='img.displayed' src='/static/experiments/gng_food/images/slimfastC.bmp'></img></div><div class = sliderbox><div class = buttonBox><div class = Button1><input type=""button"" id = ""button1"" value=""1"" onClick = ""pressSubmit(1, 81)""></div><div class = Button2><input type=""button"" id = ""button2"" value=""2"" onClick = ""pressSubmit(2, 81)""></div><div class = Button3><input type=""button"" id = ""button3"" value=""3"" onClick = ""pressSubmit(3, 81)""></div><div class = Button4><input type=""button"" id = ""button4"" value=""4"" onClick = ""pressSubmit(4, 81)""></div><div class = Button5><input type=""button"" id = ""button5"" value=""5"" onClick = ""pressSubmit(5, 81)""></div><div class = Button6><input type=""button"" id = ""button6"" value=""6"" onClick = ""pressSubmit(6, 81)""></div><div class = Button7><input type=""button"" id = ""button7"" value=""7"" onClick = ""pressSubmit(7, 81)""></div></div></div></div>","81","4341","77","4","slimfastC.bmp","","","","","","","","",""
"","2204","81","2204","-1","pre_task","poldrack-single-stim","80","267739","0.0-1.0-78.0","go_nogo","true","0","","<div class = bigBox><div class = pictureBox><img class='img.displayed' src='/static/experiments/gng_food/images/FamousAmos_small.bmp'></img></div><div class = sliderbox><div class = buttonBox><div class = Button1><input type=""button"" id = ""button1"" value=""1"" onClick = ""pressSubmit(1, 81)""></div><div class = Button2><input type=""button"" id = ""button2"" value=""2"" onClick = ""pressSubmit(2, 81)""></div><div class = Button3><input type=""button"" id = ""button3"" value=""3"" onClick = ""pressSubmit(3, 81)""></div><div class = Button4><input type=""button"" id = ""button4"" value=""4"" onClick = ""pressSubmit(4, 81)""></div><div class = Button5><input type=""button"" id = ""button5"" value=""5"" onClick = ""pressSubmit(5, 81)""></div><div class = Button6><input type=""button"" id = ""button6"" value=""6"" onClick = ""pressSubmit(6, 81)""></div><div class = Button7><input type=""button"" id = ""button7"" value=""7"" onClick = ""pressSubmit(7, 81)""></div></div></div></div>","81","2204","78","6","FamousAmos_small.bmp","","","","","","","","",""
"","3037","81","3037","-1","pre_task","poldrack-single-stim","81","270776","0.0-1.0-79.0","go_nogo","true","0","","<div class = bigBox><div class = pictureBox><img class='img.displayed' src='/static/experiments/gng_food/images/laffytaffyred_one.bmp'></img></div><div class = sliderbox><div class = buttonBox><div class = Button1><input type=""button"" id = ""button1"" value=""1"" onClick = ""pressSubmit(1, 81)""></div><div class = Button2><input type=""button"" id = ""button2"" value=""2"" onClick = ""pressSubmit(2, 81)""></div><div class = Button3><input type=""button"" id = ""button3"" value=""3"" onClick = ""pressSubmit(3, 81)""></div><div class = Button4><input type=""button"" id = ""button4"" value=""4"" onClick = ""pressSubmit(4, 81)""></div><div class = Button5><input type=""button"" id = ""button5"" value=""5"" onClick = ""pressSubmit(5, 81)""></div><div class = Button6><input type=""button"" id = ""button6"" value=""6"" onClick = ""pressSubmit(6, 81)""></div><div class = Button7><input type=""button"" id = ""button7"" value=""7"" onClick = ""pressSubmit(7, 81)""></div></div></div></div>","81","3037","79","2","laffytaffyred_one.bmp","","","","","","","","",""
"","3486","81","3486","-1","pre_task","poldrack-single-stim","82","274264","0.0-1.0-80.0","go_nogo","true","0","","<div class = bigBox><div class = pictureBox><img class='img.displayed' src='/static/experiments/gng_food/images/laysclassic.bmp'></img></div><div class = sliderbox><div class = buttonBox><div class = Button1><input type=""button"" id = ""button1"" value=""1"" onClick = ""pressSubmit(1, 81)""></div><div class = Button2><input type=""button"" id = ""button2"" value=""2"" onClick = ""pressSubmit(2, 81)""></div><div class = Button3><input type=""button"" id = ""button3"" value=""3"" onClick = ""pressSubmit(3, 81)""></div><div class = Button4><input type=""button"" id = ""button4"" value=""4"" onClick = ""pressSubmit(4, 81)""></div><div class = Button5><input type=""button"" id = ""button5"" value=""5"" onClick = ""pressSubmit(5, 81)""></div><div class = Button6><input type=""button"" id = ""button6"" value=""6"" onClick = ""pressSubmit(6, 81)""></div><div class = Button7><input type=""button"" id = ""button7"" value=""7"" onClick = ""pressSubmit(7, 81)""></div></div></div></div>","81","3486","80","6","laysclassic.bmp","","","","","","","","",""
"","1889","81","1889","-1","pre_task","poldrack-single-stim","83","276154","0.0-1.0-81.0","go_nogo","true","0","","<div class = bigBox><div class = pictureBox><img class='img.displayed' src='/static/experiments/gng_food/images/keeblerfudgestripes.bmp'></img></div><div class = sliderbox><div class = buttonBox><div class = Button1><input type=""button"" id = ""button1"" value=""1"" onClick = ""pressSubmit(1, 81)""></div><div class = Button2><input type=""button"" id = ""button2"" value=""2"" onClick = ""pressSubmit(2, 81)""></div><div class = Button3><input type=""button"" id = ""button3"" value=""3"" onClick = ""pressSubmit(3, 81)""></div><div class = Button4><input type=""button"" id = ""button4"" value=""4"" onClick = ""pressSubmit(4, 81)""></div><div class = Button5><input type=""button"" id = ""button5"" value=""5"" onClick = ""pressSubmit(5, 81)""></div><div class = Button6><input type=""button"" id = ""button6"" value=""6"" onClick = ""pressSubmit(6, 81)""></div><div class = Button7><input type=""button"" id = ""button7"" value=""7"" onClick = ""pressSubmit(7, 81)""></div></div></div></div>","81","1889","81","6","keeblerfudgestripes.bmp","","","","","","","","",""
"","4094","81","4094","-1","pre_task","poldrack-single-stim","84","280249","0.0-1.0-82.0","go_nogo","true","0","","<div class = bigBox><div class = pictureBox><img class='img.displayed' src='/static/experiments/gng_food/images/almondjoy.bmp'></img></div><div class = sliderbox><div class = buttonBox><div class = Button1><input type=""button"" id = ""button1"" value=""1"" onClick = ""pressSubmit(1, 81)""></div><div class = Button2><input type=""button"" id = ""button2"" value=""2"" onClick = ""pressSubmit(2, 81)""></div><div class = Button3><input type=""button"" id = ""button3"" value=""3"" onClick = ""pressSubmit(3, 81)""></div><div class = Button4><input type=""button"" id = ""button4"" value=""4"" onClick = ""pressSubmit(4, 81)""></div><div class = Button5><input type=""button"" id = ""button5"" value=""5"" onClick = ""pressSubmit(5, 81)""></div><div class = Button6><input type=""button"" id = ""button6"" value=""6"" onClick = ""pressSubmit(6, 81)""></div><div class = Button7><input type=""button"" id = ""button7"" value=""7"" onClick = ""pressSubmit(7, 81)""></div></div></div></div>","81","4094","82","3","almondjoy.bmp","","","","","","","","",""
"","2912","81","2912","-1","pre_task","poldrack-single-stim","85","283163","0.0-1.0-83.0","go_nogo","true","0","","<div class = bigBox><div class = pictureBox><img class='img.displayed' src='/static/experiments/gng_food/images/starburst.bmp'></img></div><div class = sliderbox><div class = buttonBox><div class = Button1><input type=""button"" id = ""button1"" value=""1"" onClick = ""pressSubmit(1, 81)""></div><div class = Button2><input type=""button"" id = ""button2"" value=""2"" onClick = ""pressSubmit(2, 81)""></div><div class = Button3><input type=""button"" id = ""button3"" value=""3"" onClick = ""pressSubmit(3, 81)""></div><div class = Button4><input type=""button"" id = ""button4"" value=""4"" onClick = ""pressSubmit(4, 81)""></div><div class = Button5><input type=""button"" id = ""button5"" value=""5"" onClick = ""pressSubmit(5, 81)""></div><div class = Button6><input type=""button"" id = ""button6"" value=""6"" onClick = ""pressSubmit(6, 81)""></div><div class = Button7><input type=""button"" id = ""button7"" value=""7"" onClick = ""pressSubmit(7, 81)""></div></div></div></div>","81","2912","83","3","starburst.bmp","","","","","","","","",""
