"text","rt","key_press","block_duration","timing_post_trial","trial_id","trial_type","trial_index","time_elapsed","internal_node_id","exp_id","full_screen","focus_shifts","view_history","stimulus","possible_responses","stim_duration","trial_num","initial_rating","preTaskStim","exp_stage","correct_response","correct","stim","accuracy","final_rating","postTaskStim","condition","difference"
"<div class = bigBox><div class = welcomeBox><p class = center-block-text><font color = ""white"">Welcome to the experiment. This experiment had 3 phases and will take about 40 minutes. Press <strong>enter</strong> to begin.</font></p></div></div>","16151","13","16151","-1","instruction","poldrack-text","0","16153","0.0-0.0-0.0","go_nogo","true","0","","","","","","","","","","","","","","","",""
"","11340","","","","instruction","poldrack-instructions","1","27494","0.0-0.0-1.0","go_nogo","true","0","[{""page_index"":0,""viewing_time"":11339}]","","","","","","","","","","","","","","",""
"","8165","81","8165","-1","pre_task","poldrack-single-stim","2","35662","0.0-1.0-0.0","go_nogo","true","0","","<div class = bigBox><div class = pictureBox><img class='img.displayed' src='/static/experiments/gng_food/images/chocolate_mm.bmp'></img></div><div class = sliderbox><div class = buttonBox><div class = Button1><input type=""button"" id = ""button1"" value=""1"" onClick = ""pressSubmit(1, 81)""></div><div class = Button2><input type=""button"" id = ""button2"" value=""2"" onClick = ""pressSubmit(2, 81)""></div><div class = Button3><input type=""button"" id = ""button3"" value=""3"" onClick = ""pressSubmit(3, 81)""></div><div class = Button4><input type=""button"" id = ""button4"" value=""4"" onClick = ""pressSubmit(4, 81)""></div><div class = Button5><input type=""button"" id = ""button5"" value=""5"" onClick = ""pressSubmit(5, 81)""></div><div class = Button6><input type=""button"" id = ""button6"" value=""6"" onClick = ""pressSubmit(6, 81)""></div><div class = Button7><input type=""button"" id = ""button7"" value=""7"" onClick = ""pressSubmit(7, 81)""></div></div></div></div>","81","8165","0","6","chocolate_mm.bmp","","","","","","","","",""
"","1809","81","1809","-1","pre_task","poldrack-single-stim","3","37473","0.0-1.0-1.0","go_nogo","true","0","","<div class = bigBox><div class = pictureBox><img class='img.displayed' src='/static/experiments/gng_food/images/keeblerrainbow.bmp'></img></div><div class = sliderbox><div class = buttonBox><div class = Button1><input type=""button"" id = ""button1"" value=""1"" onClick = ""pressSubmit(1, 81)""></div><div class = Button2><input type=""button"" id = ""button2"" value=""2"" onClick = ""pressSubmit(2, 81)""></div><div class = Button3><input type=""button"" id = ""button3"" value=""3"" onClick = ""pressSubmit(3, 81)""></div><div class = Button4><input type=""button"" id = ""button4"" value=""4"" onClick = ""pressSubmit(4, 81)""></div><div class = Button5><input type=""button"" id = ""button5"" value=""5"" onClick = ""pressSubmit(5, 81)""></div><div class = Button6><input type=""button"" id = ""button6"" value=""6"" onClick = ""pressSubmit(6, 81)""></div><div class = Button7><input type=""button"" id = ""button7"" value=""7"" onClick = ""pressSubmit(7, 81)""></div></div></div></div>","81","1809","1","5","keeblerrainbow.bmp","","","","","","","","",""
"","3598","81","3598","-1","pre_task","poldrack-single-stim","4","41072","0.0-1.0-2.0","go_nogo","true","0","","<div class = bigBox><div class = pictureBox><img class='img.displayed' src='/static/experiments/gng_food/images/PopTartsStrawberry.bmp'></img></div><div class = sliderbox><div class = buttonBox><div class = Button1><input type=""button"" id = ""button1"" value=""1"" onClick = ""pressSubmit(1, 81)""></div><div class = Button2><input type=""button"" id = ""button2"" value=""2"" onClick = ""pressSubmit(2, 81)""></div><div class = Button3><input type=""button"" id = ""button3"" value=""3"" onClick = ""pressSubmit(3, 81)""></div><div class = Button4><input type=""button"" id = ""button4"" value=""4"" onClick = ""pressSubmit(4, 81)""></div><div class = Button5><input type=""button"" id = ""button5"" value=""5"" onClick = ""pressSubmit(5, 81)""></div><div class = Button6><input type=""button"" id = ""button6"" value=""6"" onClick = ""pressSubmit(6, 81)""></div><div class = Button7><input type=""button"" id = ""button7"" value=""7"" onClick = ""pressSubmit(7, 81)""></div></div></div></div>","81","3598","2","4","PopTartsStrawberry.bmp","","","","","","","","",""
"","1843","81","1843","-1","pre_task","poldrack-single-stim","5","42917","0.0-1.0-3.0","go_nogo","true","0","","<div class = bigBox><div class = pictureBox><img class='img.displayed' src='/static/experiments/gng_food/images/Reeses.bmp'></img></div><div class = sliderbox><div class = buttonBox><div class = Button1><input type=""button"" id = ""button1"" value=""1"" onClick = ""pressSubmit(1, 81)""></div><div class = Button2><input type=""button"" id = ""button2"" value=""2"" onClick = ""pressSubmit(2, 81)""></div><div class = Button3><input type=""button"" id = ""button3"" value=""3"" onClick = ""pressSubmit(3, 81)""></div><div class = Button4><input type=""button"" id = ""button4"" value=""4"" onClick = ""pressSubmit(4, 81)""></div><div class = Button5><input type=""button"" id = ""button5"" value=""5"" onClick = ""pressSubmit(5, 81)""></div><div class = Button6><input type=""button"" id = ""button6"" value=""6"" onClick = ""pressSubmit(6, 81)""></div><div class = Button7><input type=""button"" id = ""button7"" value=""7"" onClick = ""pressSubmit(7, 81)""></div></div></div></div>","81","1843","3","4","Reeses.bmp","","","","","","","","",""
"","2823","81","2823","-1","pre_task","poldrack-single-stim","6","45741","0.0-1.0-4.0","go_nogo","true","0","","<div class = bigBox><div class = pictureBox><img class='img.displayed' src='/static/experiments/gng_food/images/Whatchamacallit.bmp'></img></div><div class = sliderbox><div class = buttonBox><div class = Button1><input type=""button"" id = ""button1"" value=""1"" onClick = ""pressSubmit(1, 81)""></div><div class = Button2><input type=""button"" id = ""button2"" value=""2"" onClick = ""pressSubmit(2, 81)""></div><div class = Button3><input type=""button"" id = ""button3"" value=""3"" onClick = ""pressSubmit(3, 81)""></div><div class = Button4><input type=""button"" id = ""button4"" value=""4"" onClick = ""pressSubmit(4, 81)""></div><div class = Button5><input type=""button"" id = ""button5"" value=""5"" onClick = ""pressSubmit(5, 81)""></div><div class = Button6><input type=""button"" id = ""button6"" value=""6"" onClick = ""pressSubmit(6, 81)""></div><div class = Button7><input type=""button"" id = ""button7"" value=""7"" onClick = ""pressSubmit(7, 81)""></div></div></div></div>","81","2823","4","5","Whatchamacallit.bmp","","","","","","","","",""
"","1303","81","1303","-1","pre_task","poldrack-single-stim","7","47045","0.0-1.0-5.0","go_nogo","true","0","","<div class = bigBox><div class = pictureBox><img class='img.displayed' src='/static/experiments/gng_food/images/nutterbutter.bmp'></img></div><div class = sliderbox><div class = buttonBox><div class = Button1><input type=""button"" id = ""button1"" value=""1"" onClick = ""pressSubmit(1, 81)""></div><div class = Button2><input type=""button"" id = ""button2"" value=""2"" onClick = ""pressSubmit(2, 81)""></div><div class = Button3><input type=""button"" id = ""button3"" value=""3"" onClick = ""pressSubmit(3, 81)""></div><div class = Button4><input type=""button"" id = ""button4"" value=""4"" onClick = ""pressSubmit(4, 81)""></div><div class = Button5><input type=""button"" id = ""button5"" value=""5"" onClick = ""pressSubmit(5, 81)""></div><div class = Button6><input type=""button"" id = ""button6"" value=""6"" onClick = ""pressSubmit(6, 81)""></div><div class = Button7><input type=""button"" id = ""button7"" value=""7"" onClick = ""pressSubmit(7, 81)""></div></div></div></div>","81","1303","5","5","nutterbutter.bmp","","","","","","","","",""
"","2148","81","2148","-1","pre_task","poldrack-single-stim","8","49195","0.0-1.0-6.0","go_nogo","true","0","","<div class = bigBox><div class = pictureBox><img class='img.displayed' src='/static/experiments/gng_food/images/redvines_small.bmp'></img></div><div class = sliderbox><div class = buttonBox><div class = Button1><input type=""button"" id = ""button1"" value=""1"" onClick = ""pressSubmit(1, 81)""></div><div class = Button2><input type=""button"" id = ""button2"" value=""2"" onClick = ""pressSubmit(2, 81)""></div><div class = Button3><input type=""button"" id = ""button3"" value=""3"" onClick = ""pressSubmit(3, 81)""></div><div class = Button4><input type=""button"" id = ""button4"" value=""4"" onClick = ""pressSubmit(4, 81)""></div><div class = Button5><input type=""button"" id = ""button5"" value=""5"" onClick = ""pressSubmit(5, 81)""></div><div class = Button6><input type=""button"" id = ""button6"" value=""6"" onClick = ""pressSubmit(6, 81)""></div><div class = Button7><input type=""button"" id = ""button7"" value=""7"" onClick = ""pressSubmit(7, 81)""></div></div></div></div>","81","2148","6","5","redvines_small.bmp","","","","","","","","",""
"","1979","81","1979","-1","pre_task","poldrack-single-stim","9","51175","0.0-1.0-7.0","go_nogo","true","0","","<div class = bigBox><div class = pictureBox><img class='img.displayed' src='/static/experiments/gng_food/images/FamousAmos_small.bmp'></img></div><div class = sliderbox><div class = buttonBox><div class = Button1><input type=""button"" id = ""button1"" value=""1"" onClick = ""pressSubmit(1, 81)""></div><div class = Button2><input type=""button"" id = ""button2"" value=""2"" onClick = ""pressSubmit(2, 81)""></div><div class = Button3><input type=""button"" id = ""button3"" value=""3"" onClick = ""pressSubmit(3, 81)""></div><div class = Button4><input type=""button"" id = ""button4"" value=""4"" onClick = ""pressSubmit(4, 81)""></div><div class = Button5><input type=""button"" id = ""button5"" value=""5"" onClick = ""pressSubmit(5, 81)""></div><div class = Button6><input type=""button"" id = ""button6"" value=""6"" onClick = ""pressSubmit(6, 81)""></div><div class = Button7><input type=""button"" id = ""button7"" value=""7"" onClick = ""pressSubmit(7, 81)""></div></div></div></div>","81","1979","7","5","FamousAmos_small.bmp","","","","","","","","",""
"","2047","81","2047","-1","pre_task","poldrack-single-stim","10","53223","0.0-1.0-8.0","go_nogo","true","0","","<div class = bigBox><div class = pictureBox><img class='img.displayed' src='/static/experiments/gng_food/images/starburst.bmp'></img></div><div class = sliderbox><div class = buttonBox><div class = Button1><input type=""button"" id = ""button1"" value=""1"" onClick = ""pressSubmit(1, 81)""></div><div class = Button2><input type=""button"" id = ""button2"" value=""2"" onClick = ""pressSubmit(2, 81)""></div><div class = Button3><input type=""button"" id = ""button3"" value=""3"" onClick = ""pressSubmit(3, 81)""></div><div class = Button4><input type=""button"" id = ""button4"" value=""4"" onClick = ""pressSubmit(4, 81)""></div><div class = Button5><input type=""button"" id = ""button5"" value=""5"" onClick = ""pressSubmit(5, 81)""></div><div class = Button6><input type=""button"" id = ""button6"" value=""6"" onClick = ""pressSubmit(6, 81)""></div><div class = Button7><input type=""button"" id = ""button7"" value=""7"" onClick = ""pressSubmit(7, 81)""></div></div></div></div>","81","2047","8","6","starburst.bmp","","","","","","","","",""
"","2957","81","2957","-1","pre_task","poldrack-single-stim","11","56181","0.0-1.0-9.0","go_nogo","true","0","","<div class = bigBox><div class = pictureBox><img class='img.displayed' src='/static/experiments/gng_food/images/slimjim.bmp'></img></div><div class = sliderbox><div class = buttonBox><div class = Button1><input type=""button"" id = ""button1"" value=""1"" onClick = ""pressSubmit(1, 81)""></div><div class = Button2><input type=""button"" id = ""button2"" value=""2"" onClick = ""pressSubmit(2, 81)""></div><div class = Button3><input type=""button"" id = ""button3"" value=""3"" onClick = ""pressSubmit(3, 81)""></div><div class = Button4><input type=""button"" id = ""button4"" value=""4"" onClick = ""pressSubmit(4, 81)""></div><div class = Button5><input type=""button"" id = ""button5"" value=""5"" onClick = ""pressSubmit(5, 81)""></div><div class = Button6><input type=""button"" id = ""button6"" value=""6"" onClick = ""pressSubmit(6, 81)""></div><div class = Button7><input type=""button"" id = ""button7"" value=""7"" onClick = ""pressSubmit(7, 81)""></div></div></div></div>","81","2957","9","5","slimjim.bmp","","","","","","","","",""
"","1901","81","1901","-1","pre_task","poldrack-single-stim","12","58082","0.0-1.0-10.0","go_nogo","true","0","","<div class = bigBox><div class = pictureBox><img class='img.displayed' src='/static/experiments/gng_food/images/frostedcheerios.bmp'></img></div><div class = sliderbox><div class = buttonBox><div class = Button1><input type=""button"" id = ""button1"" value=""1"" onClick = ""pressSubmit(1, 81)""></div><div class = Button2><input type=""button"" id = ""button2"" value=""2"" onClick = ""pressSubmit(2, 81)""></div><div class = Button3><input type=""button"" id = ""button3"" value=""3"" onClick = ""pressSubmit(3, 81)""></div><div class = Button4><input type=""button"" id = ""button4"" value=""4"" onClick = ""pressSubmit(4, 81)""></div><div class = Button5><input type=""button"" id = ""button5"" value=""5"" onClick = ""pressSubmit(5, 81)""></div><div class = Button6><input type=""button"" id = ""button6"" value=""6"" onClick = ""pressSubmit(6, 81)""></div><div class = Button7><input type=""button"" id = ""button7"" value=""7"" onClick = ""pressSubmit(7, 81)""></div></div></div></div>","81","1901","10","6","frostedcheerios.bmp","","","","","","","","",""
"","1529","81","1529","-1","pre_task","poldrack-single-stim","13","59612","0.0-1.0-11.0","go_nogo","true","0","","<div class = bigBox><div class = pictureBox><img class='img.displayed' src='/static/experiments/gng_food/images/Cheese_PeanutButterCrackers.bmp'></img></div><div class = sliderbox><div class = buttonBox><div class = Button1><input type=""button"" id = ""button1"" value=""1"" onClick = ""pressSubmit(1, 81)""></div><div class = Button2><input type=""button"" id = ""button2"" value=""2"" onClick = ""pressSubmit(2, 81)""></div><div class = Button3><input type=""button"" id = ""button3"" value=""3"" onClick = ""pressSubmit(3, 81)""></div><div class = Button4><input type=""button"" id = ""button4"" value=""4"" onClick = ""pressSubmit(4, 81)""></div><div class = Button5><input type=""button"" id = ""button5"" value=""5"" onClick = ""pressSubmit(5, 81)""></div><div class = Button6><input type=""button"" id = ""button6"" value=""6"" onClick = ""pressSubmit(6, 81)""></div><div class = Button7><input type=""button"" id = ""button7"" value=""7"" onClick = ""pressSubmit(7, 81)""></div></div></div></div>","81","1529","11","5","Cheese_PeanutButterCrackers.bmp","","","","","","","","",""
"","2385","81","2385","-1","pre_task","poldrack-single-stim","14","61997","0.0-1.0-12.0","go_nogo","true","0","","<div class = bigBox><div class = pictureBox><img class='img.displayed' src='/static/experiments/gng_food/images/brocollincauliflower.bmp'></img></div><div class = sliderbox><div class = buttonBox><div class = Button1><input type=""button"" id = ""button1"" value=""1"" onClick = ""pressSubmit(1, 81)""></div><div class = Button2><input type=""button"" id = ""button2"" value=""2"" onClick = ""pressSubmit(2, 81)""></div><div class = Button3><input type=""button"" id = ""button3"" value=""3"" onClick = ""pressSubmit(3, 81)""></div><div class = Button4><input type=""button"" id = ""button4"" value=""4"" onClick = ""pressSubmit(4, 81)""></div><div class = Button5><input type=""button"" id = ""button5"" value=""5"" onClick = ""pressSubmit(5, 81)""></div><div class = Button6><input type=""button"" id = ""button6"" value=""6"" onClick = ""pressSubmit(6, 81)""></div><div class = Button7><input type=""button"" id = ""button7"" value=""7"" onClick = ""pressSubmit(7, 81)""></div></div></div></div>","81","2385","12","3","brocollincauliflower.bmp","","","","","","","","",""
"","2069","81","2069","-1","pre_task","poldrack-single-stim","15","64067","0.0-1.0-13.0","go_nogo","true","0","","<div class = bigBox><div class = pictureBox><img class='img.displayed' src='/static/experiments/gng_food/images/specialKbar.bmp'></img></div><div class = sliderbox><div class = buttonBox><div class = Button1><input type=""button"" id = ""button1"" value=""1"" onClick = ""pressSubmit(1, 81)""></div><div class = Button2><input type=""button"" id = ""button2"" value=""2"" onClick = ""pressSubmit(2, 81)""></div><div class = Button3><input type=""button"" id = ""button3"" value=""3"" onClick = ""pressSubmit(3, 81)""></div><div class = Button4><input type=""button"" id = ""button4"" value=""4"" onClick = ""pressSubmit(4, 81)""></div><div class = Button5><input type=""button"" id = ""button5"" value=""5"" onClick = ""pressSubmit(5, 81)""></div><div class = Button6><input type=""button"" id = ""button6"" value=""6"" onClick = ""pressSubmit(6, 81)""></div><div class = Button7><input type=""button"" id = ""button7"" value=""7"" onClick = ""pressSubmit(7, 81)""></div></div></div></div>","81","2069","13","5","specialKbar.bmp","","","","","","","","",""
"","2248","81","2248","-1","pre_task","poldrack-single-stim","16","66317","0.0-1.0-14.0","go_nogo","true","0","","<div class = bigBox><div class = pictureBox><img class='img.displayed' src='/static/experiments/gng_food/images/Lindt_small.bmp'></img></div><div class = sliderbox><div class = buttonBox><div class = Button1><input type=""button"" id = ""button1"" value=""1"" onClick = ""pressSubmit(1, 81)""></div><div class = Button2><input type=""button"" id = ""button2"" value=""2"" onClick = ""pressSubmit(2, 81)""></div><div class = Button3><input type=""button"" id = ""button3"" value=""3"" onClick = ""pressSubmit(3, 81)""></div><div class = Button4><input type=""button"" id = ""button4"" value=""4"" onClick = ""pressSubmit(4, 81)""></div><div class = Button5><input type=""button"" id = ""button5"" value=""5"" onClick = ""pressSubmit(5, 81)""></div><div class = Button6><input type=""button"" id = ""button6"" value=""6"" onClick = ""pressSubmit(6, 81)""></div><div class = Button7><input type=""button"" id = ""button7"" value=""7"" onClick = ""pressSubmit(7, 81)""></div></div></div></div>","81","2248","14","5","Lindt_small.bmp","","","","","","","","",""
"","1462","81","1462","-1","pre_task","poldrack-single-stim","17","67780","0.0-1.0-15.0","go_nogo","true","0","","<div class = bigBox><div class = pictureBox><img class='img.displayed' src='/static/experiments/gng_food/images/wildberrynerds.bmp'></img></div><div class = sliderbox><div class = buttonBox><div class = Button1><input type=""button"" id = ""button1"" value=""1"" onClick = ""pressSubmit(1, 81)""></div><div class = Button2><input type=""button"" id = ""button2"" value=""2"" onClick = ""pressSubmit(2, 81)""></div><div class = Button3><input type=""button"" id = ""button3"" value=""3"" onClick = ""pressSubmit(3, 81)""></div><div class = Button4><input type=""button"" id = ""button4"" value=""4"" onClick = ""pressSubmit(4, 81)""></div><div class = Button5><input type=""button"" id = ""button5"" value=""5"" onClick = ""pressSubmit(5, 81)""></div><div class = Button6><input type=""button"" id = ""button6"" value=""6"" onClick = ""pressSubmit(6, 81)""></div><div class = Button7><input type=""button"" id = ""button7"" value=""7"" onClick = ""pressSubmit(7, 81)""></div></div></div></div>","81","1462","15","5","wildberrynerds.bmp","","","","","","","","",""
"","1778","81","1778","-1","pre_task","poldrack-single-stim","18","69559","0.0-1.0-16.0","go_nogo","true","0","","<div class = bigBox><div class = pictureBox><img class='img.displayed' src='/static/experiments/gng_food/images/Toberlorone.bmp'></img></div><div class = sliderbox><div class = buttonBox><div class = Button1><input type=""button"" id = ""button1"" value=""1"" onClick = ""pressSubmit(1, 81)""></div><div class = Button2><input type=""button"" id = ""button2"" value=""2"" onClick = ""pressSubmit(2, 81)""></div><div class = Button3><input type=""button"" id = ""button3"" value=""3"" onClick = ""pressSubmit(3, 81)""></div><div class = Button4><input type=""button"" id = ""button4"" value=""4"" onClick = ""pressSubmit(4, 81)""></div><div class = Button5><input type=""button"" id = ""button5"" value=""5"" onClick = ""pressSubmit(5, 81)""></div><div class = Button6><input type=""button"" id = ""button6"" value=""6"" onClick = ""pressSubmit(6, 81)""></div><div class = Button7><input type=""button"" id = ""button7"" value=""7"" onClick = ""pressSubmit(7, 81)""></div></div></div></div>","81","1778","16","6","Toberlorone.bmp","","","","","","","","",""
"","2979","81","2979","-1","pre_task","poldrack-single-stim","19","72539","0.0-1.0-17.0","go_nogo","true","0","","<div class = bigBox><div class = pictureBox><img class='img.displayed' src='/static/experiments/gng_food/images/MilkyWay.bmp'></img></div><div class = sliderbox><div class = buttonBox><div class = Button1><input type=""button"" id = ""button1"" value=""1"" onClick = ""pressSubmit(1, 81)""></div><div class = Button2><input type=""button"" id = ""button2"" value=""2"" onClick = ""pressSubmit(2, 81)""></div><div class = Button3><input type=""button"" id = ""button3"" value=""3"" onClick = ""pressSubmit(3, 81)""></div><div class = Button4><input type=""button"" id = ""button4"" value=""4"" onClick = ""pressSubmit(4, 81)""></div><div class = Button5><input type=""button"" id = ""button5"" value=""5"" onClick = ""pressSubmit(5, 81)""></div><div class = Button6><input type=""button"" id = ""button6"" value=""6"" onClick = ""pressSubmit(6, 81)""></div><div class = Button7><input type=""button"" id = ""button7"" value=""7"" onClick = ""pressSubmit(7, 81)""></div></div></div></div>","81","2979","17","5","MilkyWay.bmp","","","","","","","","",""
"","1270","81","1270","-1","pre_task","poldrack-single-stim","20","73810","0.0-1.0-18.0","go_nogo","true","0","","<div class = bigBox><div class = pictureBox><img class='img.displayed' src='/static/experiments/gng_food/images/riprolls.bmp'></img></div><div class = sliderbox><div class = buttonBox><div class = Button1><input type=""button"" id = ""button1"" value=""1"" onClick = ""pressSubmit(1, 81)""></div><div class = Button2><input type=""button"" id = ""button2"" value=""2"" onClick = ""pressSubmit(2, 81)""></div><div class = Button3><input type=""button"" id = ""button3"" value=""3"" onClick = ""pressSubmit(3, 81)""></div><div class = Button4><input type=""button"" id = ""button4"" value=""4"" onClick = ""pressSubmit(4, 81)""></div><div class = Button5><input type=""button"" id = ""button5"" value=""5"" onClick = ""pressSubmit(5, 81)""></div><div class = Button6><input type=""button"" id = ""button6"" value=""6"" onClick = ""pressSubmit(6, 81)""></div><div class = Button7><input type=""button"" id = ""button7"" value=""7"" onClick = ""pressSubmit(7, 81)""></div></div></div></div>","81","1270","18","5","riprolls.bmp","","","","","","","","",""
"","1462","81","1462","-1","pre_task","poldrack-single-stim","21","75273","0.0-1.0-19.0","go_nogo","true","0","","<div class = bigBox><div class = pictureBox><img class='img.displayed' src='/static/experiments/gng_food/images/AppleJacks.bmp'></img></div><div class = sliderbox><div class = buttonBox><div class = Button1><input type=""button"" id = ""button1"" value=""1"" onClick = ""pressSubmit(1, 81)""></div><div class = Button2><input type=""button"" id = ""button2"" value=""2"" onClick = ""pressSubmit(2, 81)""></div><div class = Button3><input type=""button"" id = ""button3"" value=""3"" onClick = ""pressSubmit(3, 81)""></div><div class = Button4><input type=""button"" id = ""button4"" value=""4"" onClick = ""pressSubmit(4, 81)""></div><div class = Button5><input type=""button"" id = ""button5"" value=""5"" onClick = ""pressSubmit(5, 81)""></div><div class = Button6><input type=""button"" id = ""button6"" value=""6"" onClick = ""pressSubmit(6, 81)""></div><div class = Button7><input type=""button"" id = ""button7"" value=""7"" onClick = ""pressSubmit(7, 81)""></div></div></div></div>","81","1462","19","5","AppleJacks.bmp","","","","","","","","",""
"","1382","81","1382","-1","pre_task","poldrack-single-stim","22","76656","0.0-1.0-20.0","go_nogo","true","0","","<div class = bigBox><div class = pictureBox><img class='img.displayed' src='/static/experiments/gng_food/images/PayDay.bmp'></img></div><div class = sliderbox><div class = buttonBox><div class = Button1><input type=""button"" id = ""button1"" value=""1"" onClick = ""pressSubmit(1, 81)""></div><div class = Button2><input type=""button"" id = ""button2"" value=""2"" onClick = ""pressSubmit(2, 81)""></div><div class = Button3><input type=""button"" id = ""button3"" value=""3"" onClick = ""pressSubmit(3, 81)""></div><div class = Button4><input type=""button"" id = ""button4"" value=""4"" onClick = ""pressSubmit(4, 81)""></div><div class = Button5><input type=""button"" id = ""button5"" value=""5"" onClick = ""pressSubmit(5, 81)""></div><div class = Button6><input type=""button"" id = ""button6"" value=""6"" onClick = ""pressSubmit(6, 81)""></div><div class = Button7><input type=""button"" id = ""button7"" value=""7"" onClick = ""pressSubmit(7, 81)""></div></div></div></div>","81","1382","20","6","PayDay.bmp","","","","","","","","",""
"","1563","81","1563","-1","pre_task","poldrack-single-stim","23","78220","0.0-1.0-21.0","go_nogo","true","0","","<div class = bigBox><div class = pictureBox><img class='img.displayed' src='/static/experiments/gng_food/images/cookiencream.bmp'></img></div><div class = sliderbox><div class = buttonBox><div class = Button1><input type=""button"" id = ""button1"" value=""1"" onClick = ""pressSubmit(1, 81)""></div><div class = Button2><input type=""button"" id = ""button2"" value=""2"" onClick = ""pressSubmit(2, 81)""></div><div class = Button3><input type=""button"" id = ""button3"" value=""3"" onClick = ""pressSubmit(3, 81)""></div><div class = Button4><input type=""button"" id = ""button4"" value=""4"" onClick = ""pressSubmit(4, 81)""></div><div class = Button5><input type=""button"" id = ""button5"" value=""5"" onClick = ""pressSubmit(5, 81)""></div><div class = Button6><input type=""button"" id = ""button6"" value=""6"" onClick = ""pressSubmit(6, 81)""></div><div class = Button7><input type=""button"" id = ""button7"" value=""7"" onClick = ""pressSubmit(7, 81)""></div></div></div></div>","81","1563","21","6","cookiencream.bmp","","","","","","","","",""
"","1124","81","1124","-1","pre_task","poldrack-single-stim","24","79346","0.0-1.0-22.0","go_nogo","true","0","","<div class = bigBox><div class = pictureBox><img class='img.displayed' src='/static/experiments/gng_food/images/PowderedDonuts_small.bmp'></img></div><div class = sliderbox><div class = buttonBox><div class = Button1><input type=""button"" id = ""button1"" value=""1"" onClick = ""pressSubmit(1, 81)""></div><div class = Button2><input type=""button"" id = ""button2"" value=""2"" onClick = ""pressSubmit(2, 81)""></div><div class = Button3><input type=""button"" id = ""button3"" value=""3"" onClick = ""pressSubmit(3, 81)""></div><div class = Button4><input type=""button"" id = ""button4"" value=""4"" onClick = ""pressSubmit(4, 81)""></div><div class = Button5><input type=""button"" id = ""button5"" value=""5"" onClick = ""pressSubmit(5, 81)""></div><div class = Button6><input type=""button"" id = ""button6"" value=""6"" onClick = ""pressSubmit(6, 81)""></div><div class = Button7><input type=""button"" id = ""button7"" value=""7"" onClick = ""pressSubmit(7, 81)""></div></div></div></div>","81","1124","22","6","PowderedDonuts_small.bmp","","","","","","","","",""
"","2979","81","2979","-1","pre_task","poldrack-single-stim","25","82326","0.0-1.0-23.0","go_nogo","true","0","","<div class = bigBox><div class = pictureBox><img class='img.displayed' src='/static/experiments/gng_food/images/wwmuffin.bmp'></img></div><div class = sliderbox><div class = buttonBox><div class = Button1><input type=""button"" id = ""button1"" value=""1"" onClick = ""pressSubmit(1, 81)""></div><div class = Button2><input type=""button"" id = ""button2"" value=""2"" onClick = ""pressSubmit(2, 81)""></div><div class = Button3><input type=""button"" id = ""button3"" value=""3"" onClick = ""pressSubmit(3, 81)""></div><div class = Button4><input type=""button"" id = ""button4"" value=""4"" onClick = ""pressSubmit(4, 81)""></div><div class = Button5><input type=""button"" id = ""button5"" value=""5"" onClick = ""pressSubmit(5, 81)""></div><div class = Button6><input type=""button"" id = ""button6"" value=""6"" onClick = ""pressSubmit(6, 81)""></div><div class = Button7><input type=""button"" id = ""button7"" value=""7"" onClick = ""pressSubmit(7, 81)""></div></div></div></div>","81","2979","23","4","wwmuffin.bmp","","","","","","","","",""
"","4230","81","4230","-1","pre_task","poldrack-single-stim","26","86556","0.0-1.0-24.0","go_nogo","true","0","","<div class = bigBox><div class = pictureBox><img class='img.displayed' src='/static/experiments/gng_food/images/sbcrackers.bmp'></img></div><div class = sliderbox><div class = buttonBox><div class = Button1><input type=""button"" id = ""button1"" value=""1"" onClick = ""pressSubmit(1, 81)""></div><div class = Button2><input type=""button"" id = ""button2"" value=""2"" onClick = ""pressSubmit(2, 81)""></div><div class = Button3><input type=""button"" id = ""button3"" value=""3"" onClick = ""pressSubmit(3, 81)""></div><div class = Button4><input type=""button"" id = ""button4"" value=""4"" onClick = ""pressSubmit(4, 81)""></div><div class = Button5><input type=""button"" id = ""button5"" value=""5"" onClick = ""pressSubmit(5, 81)""></div><div class = Button6><input type=""button"" id = ""button6"" value=""6"" onClick = ""pressSubmit(6, 81)""></div><div class = Button7><input type=""button"" id = ""button7"" value=""7"" onClick = ""pressSubmit(7, 81)""></div></div></div></div>","81","4230","24","5","sbcrackers.bmp","","","","","","","","",""
"","1000","81","1000","-1","pre_task","poldrack-single-stim","27","87557","0.0-1.0-25.0","go_nogo","true","0","","<div class = bigBox><div class = pictureBox><img class='img.displayed' src='/static/experiments/gng_food/images/strawberries.bmp'></img></div><div class = sliderbox><div class = buttonBox><div class = Button1><input type=""button"" id = ""button1"" value=""1"" onClick = ""pressSubmit(1, 81)""></div><div class = Button2><input type=""button"" id = ""button2"" value=""2"" onClick = ""pressSubmit(2, 81)""></div><div class = Button3><input type=""button"" id = ""button3"" value=""3"" onClick = ""pressSubmit(3, 81)""></div><div class = Button4><input type=""button"" id = ""button4"" value=""4"" onClick = ""pressSubmit(4, 81)""></div><div class = Button5><input type=""button"" id = ""button5"" value=""5"" onClick = ""pressSubmit(5, 81)""></div><div class = Button6><input type=""button"" id = ""button6"" value=""6"" onClick = ""pressSubmit(6, 81)""></div><div class = Button7><input type=""button"" id = ""button7"" value=""7"" onClick = ""pressSubmit(7, 81)""></div></div></div></div>","81","1000","25","5","strawberries.bmp","","","","","","","","",""
"","1428","81","1428","-1","pre_task","poldrack-single-stim","28","88986","0.0-1.0-26.0","go_nogo","true","0","","<div class = bigBox><div class = pictureBox><img class='img.displayed' src='/static/experiments/gng_food/images/mixedyogart.bmp'></img></div><div class = sliderbox><div class = buttonBox><div class = Button1><input type=""button"" id = ""button1"" value=""1"" onClick = ""pressSubmit(1, 81)""></div><div class = Button2><input type=""button"" id = ""button2"" value=""2"" onClick = ""pressSubmit(2, 81)""></div><div class = Button3><input type=""button"" id = ""button3"" value=""3"" onClick = ""pressSubmit(3, 81)""></div><div class = Button4><input type=""button"" id = ""button4"" value=""4"" onClick = ""pressSubmit(4, 81)""></div><div class = Button5><input type=""button"" id = ""button5"" value=""5"" onClick = ""pressSubmit(5, 81)""></div><div class = Button6><input type=""button"" id = ""button6"" value=""6"" onClick = ""pressSubmit(6, 81)""></div><div class = Button7><input type=""button"" id = ""button7"" value=""7"" onClick = ""pressSubmit(7, 81)""></div></div></div></div>","81","1428","26","5","mixedyogart.bmp","","","","","","","","",""
"","2732","81","2732","-1","pre_task","poldrack-single-stim","29","91720","0.0-1.0-27.0","go_nogo","true","0","","<div class = bigBox><div class = pictureBox><img class='img.displayed' src='/static/experiments/gng_food/images/cheezits.bmp'></img></div><div class = sliderbox><div class = buttonBox><div class = Button1><input type=""button"" id = ""button1"" value=""1"" onClick = ""pressSubmit(1, 81)""></div><div class = Button2><input type=""button"" id = ""button2"" value=""2"" onClick = ""pressSubmit(2, 81)""></div><div class = Button3><input type=""button"" id = ""button3"" value=""3"" onClick = ""pressSubmit(3, 81)""></div><div class = Button4><input type=""button"" id = ""button4"" value=""4"" onClick = ""pressSubmit(4, 81)""></div><div class = Button5><input type=""button"" id = ""button5"" value=""5"" onClick = ""pressSubmit(5, 81)""></div><div class = Button6><input type=""button"" id = ""button6"" value=""6"" onClick = ""pressSubmit(6, 81)""></div><div class = Button7><input type=""button"" id = ""button7"" value=""7"" onClick = ""pressSubmit(7, 81)""></div></div></div></div>","81","2732","27","5","cheezits.bmp","","","","","","","","",""
"","1879","81","1879","-1","pre_task","poldrack-single-stim","30","93600","0.0-1.0-28.0","go_nogo","true","0","","<div class = bigBox><div class = pictureBox><img class='img.displayed' src='/static/experiments/gng_food/images/PopTartsCinnamon.bmp'></img></div><div class = sliderbox><div class = buttonBox><div class = Button1><input type=""button"" id = ""button1"" value=""1"" onClick = ""pressSubmit(1, 81)""></div><div class = Button2><input type=""button"" id = ""button2"" value=""2"" onClick = ""pressSubmit(2, 81)""></div><div class = Button3><input type=""button"" id = ""button3"" value=""3"" onClick = ""pressSubmit(3, 81)""></div><div class = Button4><input type=""button"" id = ""button4"" value=""4"" onClick = ""pressSubmit(4, 81)""></div><div class = Button5><input type=""button"" id = ""button5"" value=""5"" onClick = ""pressSubmit(5, 81)""></div><div class = Button6><input type=""button"" id = ""button6"" value=""6"" onClick = ""pressSubmit(6, 81)""></div><div class = Button7><input type=""button"" id = ""button7"" value=""7"" onClick = ""pressSubmit(7, 81)""></div></div></div></div>","81","1879","28","4","PopTartsCinnamon.bmp","","","","","","","","",""
"","1877","81","1877","-1","pre_task","poldrack-single-stim","31","95478","0.0-1.0-29.0","go_nogo","true","0","","<div class = bigBox><div class = pictureBox><img class='img.displayed' src='/static/experiments/gng_food/images/FlamingCheetos.bmp'></img></div><div class = sliderbox><div class = buttonBox><div class = Button1><input type=""button"" id = ""button1"" value=""1"" onClick = ""pressSubmit(1, 81)""></div><div class = Button2><input type=""button"" id = ""button2"" value=""2"" onClick = ""pressSubmit(2, 81)""></div><div class = Button3><input type=""button"" id = ""button3"" value=""3"" onClick = ""pressSubmit(3, 81)""></div><div class = Button4><input type=""button"" id = ""button4"" value=""4"" onClick = ""pressSubmit(4, 81)""></div><div class = Button5><input type=""button"" id = ""button5"" value=""5"" onClick = ""pressSubmit(5, 81)""></div><div class = Button6><input type=""button"" id = ""button6"" value=""6"" onClick = ""pressSubmit(6, 81)""></div><div class = Button7><input type=""button"" id = ""button7"" value=""7"" onClick = ""pressSubmit(7, 81)""></div></div></div></div>","81","1877","29","5","FlamingCheetos.bmp","","","","","","","","",""
"","1630","81","1630","-1","pre_task","poldrack-single-stim","32","97109","0.0-1.0-30.0","go_nogo","true","0","","<div class = bigBox><div class = pictureBox><img class='img.displayed' src='/static/experiments/gng_food/images/slimfastC.bmp'></img></div><div class = sliderbox><div class = buttonBox><div class = Button1><input type=""button"" id = ""button1"" value=""1"" onClick = ""pressSubmit(1, 81)""></div><div class = Button2><input type=""button"" id = ""button2"" value=""2"" onClick = ""pressSubmit(2, 81)""></div><div class = Button3><input type=""button"" id = ""button3"" value=""3"" onClick = ""pressSubmit(3, 81)""></div><div class = Button4><input type=""button"" id = ""button4"" value=""4"" onClick = ""pressSubmit(4, 81)""></div><div class = Button5><input type=""button"" id = ""button5"" value=""5"" onClick = ""pressSubmit(5, 81)""></div><div class = Button6><input type=""button"" id = ""button6"" value=""6"" onClick = ""pressSubmit(6, 81)""></div><div class = Button7><input type=""button"" id = ""button7"" value=""7"" onClick = ""pressSubmit(7, 81)""></div></div></div></div>","81","1630","30","3","slimfastC.bmp","","","","","","","","",""
"","1450","81","1450","-1","pre_task","poldrack-single-stim","33","98560","0.0-1.0-31.0","go_nogo","true","0","","<div class = bigBox><div class = pictureBox><img class='img.displayed' src='/static/experiments/gng_food/images/Cupcakes.bmp'></img></div><div class = sliderbox><div class = buttonBox><div class = Button1><input type=""button"" id = ""button1"" value=""1"" onClick = ""pressSubmit(1, 81)""></div><div class = Button2><input type=""button"" id = ""button2"" value=""2"" onClick = ""pressSubmit(2, 81)""></div><div class = Button3><input type=""button"" id = ""button3"" value=""3"" onClick = ""pressSubmit(3, 81)""></div><div class = Button4><input type=""button"" id = ""button4"" value=""4"" onClick = ""pressSubmit(4, 81)""></div><div class = Button5><input type=""button"" id = ""button5"" value=""5"" onClick = ""pressSubmit(5, 81)""></div><div class = Button6><input type=""button"" id = ""button6"" value=""6"" onClick = ""pressSubmit(6, 81)""></div><div class = Button7><input type=""button"" id = ""button7"" value=""7"" onClick = ""pressSubmit(7, 81)""></div></div></div></div>","81","1450","31","3","Cupcakes.bmp","","","","","","","","",""
"","1945","81","1945","-1","pre_task","poldrack-single-stim","34","100506","0.0-1.0-32.0","go_nogo","true","0","","<div class = bigBox><div class = pictureBox><img class='img.displayed' src='/static/experiments/gng_food/images/Fritos.bmp'></img></div><div class = sliderbox><div class = buttonBox><div class = Button1><input type=""button"" id = ""button1"" value=""1"" onClick = ""pressSubmit(1, 81)""></div><div class = Button2><input type=""button"" id = ""button2"" value=""2"" onClick = ""pressSubmit(2, 81)""></div><div class = Button3><input type=""button"" id = ""button3"" value=""3"" onClick = ""pressSubmit(3, 81)""></div><div class = Button4><input type=""button"" id = ""button4"" value=""4"" onClick = ""pressSubmit(4, 81)""></div><div class = Button5><input type=""button"" id = ""button5"" value=""5"" onClick = ""pressSubmit(5, 81)""></div><div class = Button6><input type=""button"" id = ""button6"" value=""6"" onClick = ""pressSubmit(6, 81)""></div><div class = Button7><input type=""button"" id = ""button7"" value=""7"" onClick = ""pressSubmit(7, 81)""></div></div></div></div>","81","1945","32","6","Fritos.bmp","","","","","","","","",""
"","2159","81","2159","-1","pre_task","poldrack-single-stim","35","102666","0.0-1.0-33.0","go_nogo","true","0","","<div class = bigBox><div class = pictureBox><img class='img.displayed' src='/static/experiments/gng_food/images/Pringles.bmp'></img></div><div class = sliderbox><div class = buttonBox><div class = Button1><input type=""button"" id = ""button1"" value=""1"" onClick = ""pressSubmit(1, 81)""></div><div class = Button2><input type=""button"" id = ""button2"" value=""2"" onClick = ""pressSubmit(2, 81)""></div><div class = Button3><input type=""button"" id = ""button3"" value=""3"" onClick = ""pressSubmit(3, 81)""></div><div class = Button4><input type=""button"" id = ""button4"" value=""4"" onClick = ""pressSubmit(4, 81)""></div><div class = Button5><input type=""button"" id = ""button5"" value=""5"" onClick = ""pressSubmit(5, 81)""></div><div class = Button6><input type=""button"" id = ""button6"" value=""6"" onClick = ""pressSubmit(6, 81)""></div><div class = Button7><input type=""button"" id = ""button7"" value=""7"" onClick = ""pressSubmit(7, 81)""></div></div></div></div>","81","2159","33","5","Pringles.bmp","","","","","","","","",""
"","1305","81","1305","-1","pre_task","poldrack-single-stim","36","103971","0.0-1.0-34.0","go_nogo","true","0","","<div class = bigBox><div class = pictureBox><img class='img.displayed' src='/static/experiments/gng_food/images/granolabar.bmp'></img></div><div class = sliderbox><div class = buttonBox><div class = Button1><input type=""button"" id = ""button1"" value=""1"" onClick = ""pressSubmit(1, 81)""></div><div class = Button2><input type=""button"" id = ""button2"" value=""2"" onClick = ""pressSubmit(2, 81)""></div><div class = Button3><input type=""button"" id = ""button3"" value=""3"" onClick = ""pressSubmit(3, 81)""></div><div class = Button4><input type=""button"" id = ""button4"" value=""4"" onClick = ""pressSubmit(4, 81)""></div><div class = Button5><input type=""button"" id = ""button5"" value=""5"" onClick = ""pressSubmit(5, 81)""></div><div class = Button6><input type=""button"" id = ""button6"" value=""6"" onClick = ""pressSubmit(6, 81)""></div><div class = Button7><input type=""button"" id = ""button7"" value=""7"" onClick = ""pressSubmit(7, 81)""></div></div></div></div>","81","1305","34","5","granolabar.bmp","","","","","","","","",""
"","1157","81","1157","-1","pre_task","poldrack-single-stim","37","105130","0.0-1.0-35.0","go_nogo","true","0","","<div class = bigBox><div class = pictureBox><img class='img.displayed' src='/static/experiments/gng_food/images/WheatThins.bmp'></img></div><div class = sliderbox><div class = buttonBox><div class = Button1><input type=""button"" id = ""button1"" value=""1"" onClick = ""pressSubmit(1, 81)""></div><div class = Button2><input type=""button"" id = ""button2"" value=""2"" onClick = ""pressSubmit(2, 81)""></div><div class = Button3><input type=""button"" id = ""button3"" value=""3"" onClick = ""pressSubmit(3, 81)""></div><div class = Button4><input type=""button"" id = ""button4"" value=""4"" onClick = ""pressSubmit(4, 81)""></div><div class = Button5><input type=""button"" id = ""button5"" value=""5"" onClick = ""pressSubmit(5, 81)""></div><div class = Button6><input type=""button"" id = ""button6"" value=""6"" onClick = ""pressSubmit(6, 81)""></div><div class = Button7><input type=""button"" id = ""button7"" value=""7"" onClick = ""pressSubmit(7, 81)""></div></div></div></div>","81","1157","35","5","WheatThins.bmp","","","","","","","","",""
"","2036","81","2036","-1","pre_task","poldrack-single-stim","38","107166","0.0-1.0-36.0","go_nogo","true","0","","<div class = bigBox><div class = pictureBox><img class='img.displayed' src='/static/experiments/gng_food/images/Goldfish.bmp'></img></div><div class = sliderbox><div class = buttonBox><div class = Button1><input type=""button"" id = ""button1"" value=""1"" onClick = ""pressSubmit(1, 81)""></div><div class = Button2><input type=""button"" id = ""button2"" value=""2"" onClick = ""pressSubmit(2, 81)""></div><div class = Button3><input type=""button"" id = ""button3"" value=""3"" onClick = ""pressSubmit(3, 81)""></div><div class = Button4><input type=""button"" id = ""button4"" value=""4"" onClick = ""pressSubmit(4, 81)""></div><div class = Button5><input type=""button"" id = ""button5"" value=""5"" onClick = ""pressSubmit(5, 81)""></div><div class = Button6><input type=""button"" id = ""button6"" value=""6"" onClick = ""pressSubmit(6, 81)""></div><div class = Button7><input type=""button"" id = ""button7"" value=""7"" onClick = ""pressSubmit(7, 81)""></div></div></div></div>","81","2036","36","5","Goldfish.bmp","","","","","","","","",""
"","2170","81","2170","-1","pre_task","poldrack-single-stim","39","109338","0.0-1.0-37.0","go_nogo","true","0","","<div class = bigBox><div class = pictureBox><img class='img.displayed' src='/static/experiments/gng_food/images/cherryicecream.bmp'></img></div><div class = sliderbox><div class = buttonBox><div class = Button1><input type=""button"" id = ""button1"" value=""1"" onClick = ""pressSubmit(1, 81)""></div><div class = Button2><input type=""button"" id = ""button2"" value=""2"" onClick = ""pressSubmit(2, 81)""></div><div class = Button3><input type=""button"" id = ""button3"" value=""3"" onClick = ""pressSubmit(3, 81)""></div><div class = Button4><input type=""button"" id = ""button4"" value=""4"" onClick = ""pressSubmit(4, 81)""></div><div class = Button5><input type=""button"" id = ""button5"" value=""5"" onClick = ""pressSubmit(5, 81)""></div><div class = Button6><input type=""button"" id = ""button6"" value=""6"" onClick = ""pressSubmit(6, 81)""></div><div class = Button7><input type=""button"" id = ""button7"" value=""7"" onClick = ""pressSubmit(7, 81)""></div></div></div></div>","81","2170","37","6","cherryicecream.bmp","","","","","","","","",""
"","1113","81","1113","-1","pre_task","poldrack-single-stim","40","110451","0.0-1.0-38.0","go_nogo","true","0","","<div class = bigBox><div class = pictureBox><img class='img.displayed' src='/static/experiments/gng_food/images/grapenerds.bmp'></img></div><div class = sliderbox><div class = buttonBox><div class = Button1><input type=""button"" id = ""button1"" value=""1"" onClick = ""pressSubmit(1, 81)""></div><div class = Button2><input type=""button"" id = ""button2"" value=""2"" onClick = ""pressSubmit(2, 81)""></div><div class = Button3><input type=""button"" id = ""button3"" value=""3"" onClick = ""pressSubmit(3, 81)""></div><div class = Button4><input type=""button"" id = ""button4"" value=""4"" onClick = ""pressSubmit(4, 81)""></div><div class = Button5><input type=""button"" id = ""button5"" value=""5"" onClick = ""pressSubmit(5, 81)""></div><div class = Button6><input type=""button"" id = ""button6"" value=""6"" onClick = ""pressSubmit(6, 81)""></div><div class = Button7><input type=""button"" id = ""button7"" value=""7"" onClick = ""pressSubmit(7, 81)""></div></div></div></div>","81","1113","38","5","grapenerds.bmp","","","","","","","","",""
"","1810","81","1810","-1","pre_task","poldrack-single-stim","41","112263","0.0-1.0-39.0","go_nogo","true","0","","<div class = bigBox><div class = pictureBox><img class='img.displayed' src='/static/experiments/gng_food/images/pringlescheezums.bmp'></img></div><div class = sliderbox><div class = buttonBox><div class = Button1><input type=""button"" id = ""button1"" value=""1"" onClick = ""pressSubmit(1, 81)""></div><div class = Button2><input type=""button"" id = ""button2"" value=""2"" onClick = ""pressSubmit(2, 81)""></div><div class = Button3><input type=""button"" id = ""button3"" value=""3"" onClick = ""pressSubmit(3, 81)""></div><div class = Button4><input type=""button"" id = ""button4"" value=""4"" onClick = ""pressSubmit(4, 81)""></div><div class = Button5><input type=""button"" id = ""button5"" value=""5"" onClick = ""pressSubmit(5, 81)""></div><div class = Button6><input type=""button"" id = ""button6"" value=""6"" onClick = ""pressSubmit(6, 81)""></div><div class = Button7><input type=""button"" id = ""button7"" value=""7"" onClick = ""pressSubmit(7, 81)""></div></div></div></div>","81","1810","39","5","pringlescheezums.bmp","","","","","","","","",""
"","1012","81","1012","-1","pre_task","poldrack-single-stim","42","113275","0.0-1.0-40.0","go_nogo","true","0","","<div class = bigBox><div class = pictureBox><img class='img.displayed' src='/static/experiments/gng_food/images/hersheymilk_several.bmp'></img></div><div class = sliderbox><div class = buttonBox><div class = Button1><input type=""button"" id = ""button1"" value=""1"" onClick = ""pressSubmit(1, 81)""></div><div class = Button2><input type=""button"" id = ""button2"" value=""2"" onClick = ""pressSubmit(2, 81)""></div><div class = Button3><input type=""button"" id = ""button3"" value=""3"" onClick = ""pressSubmit(3, 81)""></div><div class = Button4><input type=""button"" id = ""button4"" value=""4"" onClick = ""pressSubmit(4, 81)""></div><div class = Button5><input type=""button"" id = ""button5"" value=""5"" onClick = ""pressSubmit(5, 81)""></div><div class = Button6><input type=""button"" id = ""button6"" value=""6"" onClick = ""pressSubmit(6, 81)""></div><div class = Button7><input type=""button"" id = ""button7"" value=""7"" onClick = ""pressSubmit(7, 81)""></div></div></div></div>","81","1012","40","6","hersheymilk_several.bmp","","","","","","","","",""
"","1968","81","1968","-1","pre_task","poldrack-single-stim","43","115244","0.0-1.0-41.0","go_nogo","true","0","","<div class = bigBox><div class = pictureBox><img class='img.displayed' src='/static/experiments/gng_food/images/reddelicious.bmp'></img></div><div class = sliderbox><div class = buttonBox><div class = Button1><input type=""button"" id = ""button1"" value=""1"" onClick = ""pressSubmit(1, 81)""></div><div class = Button2><input type=""button"" id = ""button2"" value=""2"" onClick = ""pressSubmit(2, 81)""></div><div class = Button3><input type=""button"" id = ""button3"" value=""3"" onClick = ""pressSubmit(3, 81)""></div><div class = Button4><input type=""button"" id = ""button4"" value=""4"" onClick = ""pressSubmit(4, 81)""></div><div class = Button5><input type=""button"" id = ""button5"" value=""5"" onClick = ""pressSubmit(5, 81)""></div><div class = Button6><input type=""button"" id = ""button6"" value=""6"" onClick = ""pressSubmit(6, 81)""></div><div class = Button7><input type=""button"" id = ""button7"" value=""7"" onClick = ""pressSubmit(7, 81)""></div></div></div></div>","81","1968","41","5","reddelicious.bmp","","","","","","","","",""
"","1922","81","1922","-1","pre_task","poldrack-single-stim","44","117167","0.0-1.0-42.0","go_nogo","true","0","","<div class = bigBox><div class = pictureBox><img class='img.displayed' src='/static/experiments/gng_food/images/trix.bmp'></img></div><div class = sliderbox><div class = buttonBox><div class = Button1><input type=""button"" id = ""button1"" value=""1"" onClick = ""pressSubmit(1, 81)""></div><div class = Button2><input type=""button"" id = ""button2"" value=""2"" onClick = ""pressSubmit(2, 81)""></div><div class = Button3><input type=""button"" id = ""button3"" value=""3"" onClick = ""pressSubmit(3, 81)""></div><div class = Button4><input type=""button"" id = ""button4"" value=""4"" onClick = ""pressSubmit(4, 81)""></div><div class = Button5><input type=""button"" id = ""button5"" value=""5"" onClick = ""pressSubmit(5, 81)""></div><div class = Button6><input type=""button"" id = ""button6"" value=""6"" onClick = ""pressSubmit(6, 81)""></div><div class = Button7><input type=""button"" id = ""button7"" value=""7"" onClick = ""pressSubmit(7, 81)""></div></div></div></div>","81","1922","42","5","trix.bmp","","","","","","","","",""
"","1529","81","1529","-1","pre_task","poldrack-single-stim","45","118697","0.0-1.0-43.0","go_nogo","true","0","","<div class = bigBox><div class = pictureBox><img class='img.displayed' src='/static/experiments/gng_food/images/MrsFields.bmp'></img></div><div class = sliderbox><div class = buttonBox><div class = Button1><input type=""button"" id = ""button1"" value=""1"" onClick = ""pressSubmit(1, 81)""></div><div class = Button2><input type=""button"" id = ""button2"" value=""2"" onClick = ""pressSubmit(2, 81)""></div><div class = Button3><input type=""button"" id = ""button3"" value=""3"" onClick = ""pressSubmit(3, 81)""></div><div class = Button4><input type=""button"" id = ""button4"" value=""4"" onClick = ""pressSubmit(4, 81)""></div><div class = Button5><input type=""button"" id = ""button5"" value=""5"" onClick = ""pressSubmit(5, 81)""></div><div class = Button6><input type=""button"" id = ""button6"" value=""6"" onClick = ""pressSubmit(6, 81)""></div><div class = Button7><input type=""button"" id = ""button7"" value=""7"" onClick = ""pressSubmit(7, 81)""></div></div></div></div>","81","1529","43","5","MrsFields.bmp","","","","","","","","",""
"","1552","81","1552","-1","pre_task","poldrack-single-stim","46","120250","0.0-1.0-44.0","go_nogo","true","0","","<div class = bigBox><div class = pictureBox><img class='img.displayed' src='/static/experiments/gng_food/images/keeblerfudgestripes.bmp'></img></div><div class = sliderbox><div class = buttonBox><div class = Button1><input type=""button"" id = ""button1"" value=""1"" onClick = ""pressSubmit(1, 81)""></div><div class = Button2><input type=""button"" id = ""button2"" value=""2"" onClick = ""pressSubmit(2, 81)""></div><div class = Button3><input type=""button"" id = ""button3"" value=""3"" onClick = ""pressSubmit(3, 81)""></div><div class = Button4><input type=""button"" id = ""button4"" value=""4"" onClick = ""pressSubmit(4, 81)""></div><div class = Button5><input type=""button"" id = ""button5"" value=""5"" onClick = ""pressSubmit(5, 81)""></div><div class = Button6><input type=""button"" id = ""button6"" value=""6"" onClick = ""pressSubmit(6, 81)""></div><div class = Button7><input type=""button"" id = ""button7"" value=""7"" onClick = ""pressSubmit(7, 81)""></div></div></div></div>","81","1552","44","5","keeblerfudgestripes.bmp","","","","","","","","",""
"","1483","81","1483","-1","pre_task","poldrack-single-stim","47","121735","0.0-1.0-45.0","go_nogo","true","0","","<div class = bigBox><div class = pictureBox><img class='img.displayed' src='/static/experiments/gng_food/images/Sourpatch.bmp'></img></div><div class = sliderbox><div class = buttonBox><div class = Button1><input type=""button"" id = ""button1"" value=""1"" onClick = ""pressSubmit(1, 81)""></div><div class = Button2><input type=""button"" id = ""button2"" value=""2"" onClick = ""pressSubmit(2, 81)""></div><div class = Button3><input type=""button"" id = ""button3"" value=""3"" onClick = ""pressSubmit(3, 81)""></div><div class = Button4><input type=""button"" id = ""button4"" value=""4"" onClick = ""pressSubmit(4, 81)""></div><div class = Button5><input type=""button"" id = ""button5"" value=""5"" onClick = ""pressSubmit(5, 81)""></div><div class = Button6><input type=""button"" id = ""button6"" value=""6"" onClick = ""pressSubmit(6, 81)""></div><div class = Button7><input type=""button"" id = ""button7"" value=""7"" onClick = ""pressSubmit(7, 81)""></div></div></div></div>","81","1483","45","6","Sourpatch.bmp","","","","","","","","",""
"","1327","81","1327","-1","pre_task","poldrack-single-stim","48","123063","0.0-1.0-46.0","go_nogo","true","0","","<div class = bigBox><div class = pictureBox><img class='img.displayed' src='/static/experiments/gng_food/images/zingers.bmp'></img></div><div class = sliderbox><div class = buttonBox><div class = Button1><input type=""button"" id = ""button1"" value=""1"" onClick = ""pressSubmit(1, 81)""></div><div class = Button2><input type=""button"" id = ""button2"" value=""2"" onClick = ""pressSubmit(2, 81)""></div><div class = Button3><input type=""button"" id = ""button3"" value=""3"" onClick = ""pressSubmit(3, 81)""></div><div class = Button4><input type=""button"" id = ""button4"" value=""4"" onClick = ""pressSubmit(4, 81)""></div><div class = Button5><input type=""button"" id = ""button5"" value=""5"" onClick = ""pressSubmit(5, 81)""></div><div class = Button6><input type=""button"" id = ""button6"" value=""6"" onClick = ""pressSubmit(6, 81)""></div><div class = Button7><input type=""button"" id = ""button7"" value=""7"" onClick = ""pressSubmit(7, 81)""></div></div></div></div>","81","1327","46","3","zingers.bmp","","","","","","","","",""
"","1495","81","1495","-1","pre_task","poldrack-single-stim","49","124559","0.0-1.0-47.0","go_nogo","true","0","","<div class = bigBox><div class = pictureBox><img class='img.displayed' src='/static/experiments/gng_food/images/blueberryyogart.bmp'></img></div><div class = sliderbox><div class = buttonBox><div class = Button1><input type=""button"" id = ""button1"" value=""1"" onClick = ""pressSubmit(1, 81)""></div><div class = Button2><input type=""button"" id = ""button2"" value=""2"" onClick = ""pressSubmit(2, 81)""></div><div class = Button3><input type=""button"" id = ""button3"" value=""3"" onClick = ""pressSubmit(3, 81)""></div><div class = Button4><input type=""button"" id = ""button4"" value=""4"" onClick = ""pressSubmit(4, 81)""></div><div class = Button5><input type=""button"" id = ""button5"" value=""5"" onClick = ""pressSubmit(5, 81)""></div><div class = Button6><input type=""button"" id = ""button6"" value=""6"" onClick = ""pressSubmit(6, 81)""></div><div class = Button7><input type=""button"" id = ""button7"" value=""7"" onClick = ""pressSubmit(7, 81)""></div></div></div></div>","81","1495","47","5","blueberryyogart.bmp","","","","","","","","",""
"","1349","81","1349","-1","pre_task","poldrack-single-stim","50","125909","0.0-1.0-48.0","go_nogo","true","0","","<div class = bigBox><div class = pictureBox><img class='img.displayed' src='/static/experiments/gng_food/images/grannysmith.bmp'></img></div><div class = sliderbox><div class = buttonBox><div class = Button1><input type=""button"" id = ""button1"" value=""1"" onClick = ""pressSubmit(1, 81)""></div><div class = Button2><input type=""button"" id = ""button2"" value=""2"" onClick = ""pressSubmit(2, 81)""></div><div class = Button3><input type=""button"" id = ""button3"" value=""3"" onClick = ""pressSubmit(3, 81)""></div><div class = Button4><input type=""button"" id = ""button4"" value=""4"" onClick = ""pressSubmit(4, 81)""></div><div class = Button5><input type=""button"" id = ""button5"" value=""5"" onClick = ""pressSubmit(5, 81)""></div><div class = Button6><input type=""button"" id = ""button6"" value=""6"" onClick = ""pressSubmit(6, 81)""></div><div class = Button7><input type=""button"" id = ""button7"" value=""7"" onClick = ""pressSubmit(7, 81)""></div></div></div></div>","81","1349","48","5","grannysmith.bmp","","","","","","","","",""
"","1675","81","1675","-1","pre_task","poldrack-single-stim","51","127585","0.0-1.0-49.0","go_nogo","true","0","","<div class = bigBox><div class = pictureBox><img class='img.displayed' src='/static/experiments/gng_food/images/jollyrancherblue.bmp'></img></div><div class = sliderbox><div class = buttonBox><div class = Button1><input type=""button"" id = ""button1"" value=""1"" onClick = ""pressSubmit(1, 81)""></div><div class = Button2><input type=""button"" id = ""button2"" value=""2"" onClick = ""pressSubmit(2, 81)""></div><div class = Button3><input type=""button"" id = ""button3"" value=""3"" onClick = ""pressSubmit(3, 81)""></div><div class = Button4><input type=""button"" id = ""button4"" value=""4"" onClick = ""pressSubmit(4, 81)""></div><div class = Button5><input type=""button"" id = ""button5"" value=""5"" onClick = ""pressSubmit(5, 81)""></div><div class = Button6><input type=""button"" id = ""button6"" value=""6"" onClick = ""pressSubmit(6, 81)""></div><div class = Button7><input type=""button"" id = ""button7"" value=""7"" onClick = ""pressSubmit(7, 81)""></div></div></div></div>","81","1675","49","6","jollyrancherblue.bmp","","","","","","","","",""
"","1416","81","1416","-1","pre_task","poldrack-single-stim","52","129003","0.0-1.0-50.0","go_nogo","true","0","","<div class = bigBox><div class = pictureBox><img class='img.displayed' src='/static/experiments/gng_food/images/FrootLoops.bmp'></img></div><div class = sliderbox><div class = buttonBox><div class = Button1><input type=""button"" id = ""button1"" value=""1"" onClick = ""pressSubmit(1, 81)""></div><div class = Button2><input type=""button"" id = ""button2"" value=""2"" onClick = ""pressSubmit(2, 81)""></div><div class = Button3><input type=""button"" id = ""button3"" value=""3"" onClick = ""pressSubmit(3, 81)""></div><div class = Button4><input type=""button"" id = ""button4"" value=""4"" onClick = ""pressSubmit(4, 81)""></div><div class = Button5><input type=""button"" id = ""button5"" value=""5"" onClick = ""pressSubmit(5, 81)""></div><div class = Button6><input type=""button"" id = ""button6"" value=""6"" onClick = ""pressSubmit(6, 81)""></div><div class = Button7><input type=""button"" id = ""button7"" value=""7"" onClick = ""pressSubmit(7, 81)""></div></div></div></div>","81","1416","50","5","FrootLoops.bmp","","","","","","","","",""
"","1316","81","1316","-1","pre_task","poldrack-single-stim","53","130319","0.0-1.0-51.0","go_nogo","true","0","","<div class = bigBox><div class = pictureBox><img class='img.displayed' src='/static/experiments/gng_food/images/CheesyDoritos.bmp'></img></div><div class = sliderbox><div class = buttonBox><div class = Button1><input type=""button"" id = ""button1"" value=""1"" onClick = ""pressSubmit(1, 81)""></div><div class = Button2><input type=""button"" id = ""button2"" value=""2"" onClick = ""pressSubmit(2, 81)""></div><div class = Button3><input type=""button"" id = ""button3"" value=""3"" onClick = ""pressSubmit(3, 81)""></div><div class = Button4><input type=""button"" id = ""button4"" value=""4"" onClick = ""pressSubmit(4, 81)""></div><div class = Button5><input type=""button"" id = ""button5"" value=""5"" onClick = ""pressSubmit(5, 81)""></div><div class = Button6><input type=""button"" id = ""button6"" value=""6"" onClick = ""pressSubmit(6, 81)""></div><div class = Button7><input type=""button"" id = ""button7"" value=""7"" onClick = ""pressSubmit(7, 81)""></div></div></div></div>","81","1316","51","6","CheesyDoritos.bmp","","","","","","","","",""
"","1922","81","1922","-1","pre_task","poldrack-single-stim","54","132243","0.0-1.0-52.0","go_nogo","true","0","","<div class = bigBox><div class = pictureBox><img class='img.displayed' src='/static/experiments/gng_food/images/AnimalCrackers.bmp'></img></div><div class = sliderbox><div class = buttonBox><div class = Button1><input type=""button"" id = ""button1"" value=""1"" onClick = ""pressSubmit(1, 81)""></div><div class = Button2><input type=""button"" id = ""button2"" value=""2"" onClick = ""pressSubmit(2, 81)""></div><div class = Button3><input type=""button"" id = ""button3"" value=""3"" onClick = ""pressSubmit(3, 81)""></div><div class = Button4><input type=""button"" id = ""button4"" value=""4"" onClick = ""pressSubmit(4, 81)""></div><div class = Button5><input type=""button"" id = ""button5"" value=""5"" onClick = ""pressSubmit(5, 81)""></div><div class = Button6><input type=""button"" id = ""button6"" value=""6"" onClick = ""pressSubmit(6, 81)""></div><div class = Button7><input type=""button"" id = ""button7"" value=""7"" onClick = ""pressSubmit(7, 81)""></div></div></div></div>","81","1922","52","5","AnimalCrackers.bmp","","","","","","","","",""
"","3251","81","3251","-1","pre_task","poldrack-single-stim","55","135494","0.0-1.0-53.0","go_nogo","true","0","","<div class = bigBox><div class = pictureBox><img class='img.displayed' src='/static/experiments/gng_food/images/SnoBall.bmp'></img></div><div class = sliderbox><div class = buttonBox><div class = Button1><input type=""button"" id = ""button1"" value=""1"" onClick = ""pressSubmit(1, 81)""></div><div class = Button2><input type=""button"" id = ""button2"" value=""2"" onClick = ""pressSubmit(2, 81)""></div><div class = Button3><input type=""button"" id = ""button3"" value=""3"" onClick = ""pressSubmit(3, 81)""></div><div class = Button4><input type=""button"" id = ""button4"" value=""4"" onClick = ""pressSubmit(4, 81)""></div><div class = Button5><input type=""button"" id = ""button5"" value=""5"" onClick = ""pressSubmit(5, 81)""></div><div class = Button6><input type=""button"" id = ""button6"" value=""6"" onClick = ""pressSubmit(6, 81)""></div><div class = Button7><input type=""button"" id = ""button7"" value=""7"" onClick = ""pressSubmit(7, 81)""></div></div></div></div>","81","3251","53","5","SnoBall.bmp","","","","","","","","",""
"","1146","81","1146","-1","pre_task","poldrack-single-stim","56","136641","0.0-1.0-54.0","go_nogo","true","0","","<div class = bigBox><div class = pictureBox><img class='img.displayed' src='/static/experiments/gng_food/images/lollipopred.bmp'></img></div><div class = sliderbox><div class = buttonBox><div class = Button1><input type=""button"" id = ""button1"" value=""1"" onClick = ""pressSubmit(1, 81)""></div><div class = Button2><input type=""button"" id = ""button2"" value=""2"" onClick = ""pressSubmit(2, 81)""></div><div class = Button3><input type=""button"" id = ""button3"" value=""3"" onClick = ""pressSubmit(3, 81)""></div><div class = Button4><input type=""button"" id = ""button4"" value=""4"" onClick = ""pressSubmit(4, 81)""></div><div class = Button5><input type=""button"" id = ""button5"" value=""5"" onClick = ""pressSubmit(5, 81)""></div><div class = Button6><input type=""button"" id = ""button6"" value=""6"" onClick = ""pressSubmit(6, 81)""></div><div class = Button7><input type=""button"" id = ""button7"" value=""7"" onClick = ""pressSubmit(7, 81)""></div></div></div></div>","81","1146","54","6","lollipopred.bmp","","","","","","","","",""
"","1304","81","1304","-1","pre_task","poldrack-single-stim","57","137947","0.0-1.0-55.0","go_nogo","true","0","","<div class = bigBox><div class = pictureBox><img class='img.displayed' src='/static/experiments/gng_food/images/bbqgoldfish.bmp'></img></div><div class = sliderbox><div class = buttonBox><div class = Button1><input type=""button"" id = ""button1"" value=""1"" onClick = ""pressSubmit(1, 81)""></div><div class = Button2><input type=""button"" id = ""button2"" value=""2"" onClick = ""pressSubmit(2, 81)""></div><div class = Button3><input type=""button"" id = ""button3"" value=""3"" onClick = ""pressSubmit(3, 81)""></div><div class = Button4><input type=""button"" id = ""button4"" value=""4"" onClick = ""pressSubmit(4, 81)""></div><div class = Button5><input type=""button"" id = ""button5"" value=""5"" onClick = ""pressSubmit(5, 81)""></div><div class = Button6><input type=""button"" id = ""button6"" value=""6"" onClick = ""pressSubmit(6, 81)""></div><div class = Button7><input type=""button"" id = ""button7"" value=""7"" onClick = ""pressSubmit(7, 81)""></div></div></div></div>","81","1304","55","5","bbqgoldfish.bmp","","","","","","","","",""
"","2103","81","2103","-1","pre_task","poldrack-single-stim","58","140050","0.0-1.0-56.0","go_nogo","true","0","","<div class = bigBox><div class = pictureBox><img class='img.displayed' src='/static/experiments/gng_food/images/FrostedFlakes.bmp'></img></div><div class = sliderbox><div class = buttonBox><div class = Button1><input type=""button"" id = ""button1"" value=""1"" onClick = ""pressSubmit(1, 81)""></div><div class = Button2><input type=""button"" id = ""button2"" value=""2"" onClick = ""pressSubmit(2, 81)""></div><div class = Button3><input type=""button"" id = ""button3"" value=""3"" onClick = ""pressSubmit(3, 81)""></div><div class = Button4><input type=""button"" id = ""button4"" value=""4"" onClick = ""pressSubmit(4, 81)""></div><div class = Button5><input type=""button"" id = ""button5"" value=""5"" onClick = ""pressSubmit(5, 81)""></div><div class = Button6><input type=""button"" id = ""button6"" value=""6"" onClick = ""pressSubmit(6, 81)""></div><div class = Button7><input type=""button"" id = ""button7"" value=""7"" onClick = ""pressSubmit(7, 81)""></div></div></div></div>","81","2103","56","5","FrostedFlakes.bmp","","","","","","","","",""
"","1180","81","1180","-1","pre_task","poldrack-single-stim","59","141232","0.0-1.0-57.0","go_nogo","true","0","","<div class = bigBox><div class = pictureBox><img class='img.displayed' src='/static/experiments/gng_food/images/Skittles.bmp'></img></div><div class = sliderbox><div class = buttonBox><div class = Button1><input type=""button"" id = ""button1"" value=""1"" onClick = ""pressSubmit(1, 81)""></div><div class = Button2><input type=""button"" id = ""button2"" value=""2"" onClick = ""pressSubmit(2, 81)""></div><div class = Button3><input type=""button"" id = ""button3"" value=""3"" onClick = ""pressSubmit(3, 81)""></div><div class = Button4><input type=""button"" id = ""button4"" value=""4"" onClick = ""pressSubmit(4, 81)""></div><div class = Button5><input type=""button"" id = ""button5"" value=""5"" onClick = ""pressSubmit(5, 81)""></div><div class = Button6><input type=""button"" id = ""button6"" value=""6"" onClick = ""pressSubmit(6, 81)""></div><div class = Button7><input type=""button"" id = ""button7"" value=""7"" onClick = ""pressSubmit(7, 81)""></div></div></div></div>","81","1180","57","6","Skittles.bmp","","","","","","","","",""
"","1203","81","1203","-1","pre_task","poldrack-single-stim","60","142435","0.0-1.0-58.0","go_nogo","true","0","","<div class = bigBox><div class = pictureBox><img class='img.displayed' src='/static/experiments/gng_food/images/jollyranchergreen.bmp'></img></div><div class = sliderbox><div class = buttonBox><div class = Button1><input type=""button"" id = ""button1"" value=""1"" onClick = ""pressSubmit(1, 81)""></div><div class = Button2><input type=""button"" id = ""button2"" value=""2"" onClick = ""pressSubmit(2, 81)""></div><div class = Button3><input type=""button"" id = ""button3"" value=""3"" onClick = ""pressSubmit(3, 81)""></div><div class = Button4><input type=""button"" id = ""button4"" value=""4"" onClick = ""pressSubmit(4, 81)""></div><div class = Button5><input type=""button"" id = ""button5"" value=""5"" onClick = ""pressSubmit(5, 81)""></div><div class = Button6><input type=""button"" id = ""button6"" value=""6"" onClick = ""pressSubmit(6, 81)""></div><div class = Button7><input type=""button"" id = ""button7"" value=""7"" onClick = ""pressSubmit(7, 81)""></div></div></div></div>","81","1203","58","6","jollyranchergreen.bmp","","","","","","","","",""
"","1990","81","1990","-1","pre_task","poldrack-single-stim","61","144427","0.0-1.0-59.0","go_nogo","true","0","","<div class = bigBox><div class = pictureBox><img class='img.displayed' src='/static/experiments/gng_food/images/TeddyGrahamschocolate.bmp'></img></div><div class = sliderbox><div class = buttonBox><div class = Button1><input type=""button"" id = ""button1"" value=""1"" onClick = ""pressSubmit(1, 81)""></div><div class = Button2><input type=""button"" id = ""button2"" value=""2"" onClick = ""pressSubmit(2, 81)""></div><div class = Button3><input type=""button"" id = ""button3"" value=""3"" onClick = ""pressSubmit(3, 81)""></div><div class = Button4><input type=""button"" id = ""button4"" value=""4"" onClick = ""pressSubmit(4, 81)""></div><div class = Button5><input type=""button"" id = ""button5"" value=""5"" onClick = ""pressSubmit(5, 81)""></div><div class = Button6><input type=""button"" id = ""button6"" value=""6"" onClick = ""pressSubmit(6, 81)""></div><div class = Button7><input type=""button"" id = ""button7"" value=""7"" onClick = ""pressSubmit(7, 81)""></div></div></div></div>","81","1990","59","5","TeddyGrahamschocolate.bmp","","","","","","","","",""
"","1608","81","1608","-1","pre_task","poldrack-single-stim","62","146036","0.0-1.0-60.0","go_nogo","true","0","","<div class = bigBox><div class = pictureBox><img class='img.displayed' src='/static/experiments/gng_food/images/MrGoodbar.bmp'></img></div><div class = sliderbox><div class = buttonBox><div class = Button1><input type=""button"" id = ""button1"" value=""1"" onClick = ""pressSubmit(1, 81)""></div><div class = Button2><input type=""button"" id = ""button2"" value=""2"" onClick = ""pressSubmit(2, 81)""></div><div class = Button3><input type=""button"" id = ""button3"" value=""3"" onClick = ""pressSubmit(3, 81)""></div><div class = Button4><input type=""button"" id = ""button4"" value=""4"" onClick = ""pressSubmit(4, 81)""></div><div class = Button5><input type=""button"" id = ""button5"" value=""5"" onClick = ""pressSubmit(5, 81)""></div><div class = Button6><input type=""button"" id = ""button6"" value=""6"" onClick = ""pressSubmit(6, 81)""></div><div class = Button7><input type=""button"" id = ""button7"" value=""7"" onClick = ""pressSubmit(7, 81)""></div></div></div></div>","81","1608","60","6","MrGoodbar.bmp","","","","","","","","",""
"","2046","81","2046","-1","pre_task","poldrack-single-stim","63","148083","0.0-1.0-61.0","go_nogo","true","0","","<div class = bigBox><div class = pictureBox><img class='img.displayed' src='/static/experiments/gng_food/images/CherryPie.bmp'></img></div><div class = sliderbox><div class = buttonBox><div class = Button1><input type=""button"" id = ""button1"" value=""1"" onClick = ""pressSubmit(1, 81)""></div><div class = Button2><input type=""button"" id = ""button2"" value=""2"" onClick = ""pressSubmit(2, 81)""></div><div class = Button3><input type=""button"" id = ""button3"" value=""3"" onClick = ""pressSubmit(3, 81)""></div><div class = Button4><input type=""button"" id = ""button4"" value=""4"" onClick = ""pressSubmit(4, 81)""></div><div class = Button5><input type=""button"" id = ""button5"" value=""5"" onClick = ""pressSubmit(5, 81)""></div><div class = Button6><input type=""button"" id = ""button6"" value=""6"" onClick = ""pressSubmit(6, 81)""></div><div class = Button7><input type=""button"" id = ""button7"" value=""7"" onClick = ""pressSubmit(7, 81)""></div></div></div></div>","81","2046","61","4","CherryPie.bmp","","","","","","","","",""
"","1193","81","1193","-1","pre_task","poldrack-single-stim","64","149277","0.0-1.0-62.0","go_nogo","true","0","","<div class = bigBox><div class = pictureBox><img class='img.displayed' src='/static/experiments/gng_food/images/luckycharms.bmp'></img></div><div class = sliderbox><div class = buttonBox><div class = Button1><input type=""button"" id = ""button1"" value=""1"" onClick = ""pressSubmit(1, 81)""></div><div class = Button2><input type=""button"" id = ""button2"" value=""2"" onClick = ""pressSubmit(2, 81)""></div><div class = Button3><input type=""button"" id = ""button3"" value=""3"" onClick = ""pressSubmit(3, 81)""></div><div class = Button4><input type=""button"" id = ""button4"" value=""4"" onClick = ""pressSubmit(4, 81)""></div><div class = Button5><input type=""button"" id = ""button5"" value=""5"" onClick = ""pressSubmit(5, 81)""></div><div class = Button6><input type=""button"" id = ""button6"" value=""6"" onClick = ""pressSubmit(6, 81)""></div><div class = Button7><input type=""button"" id = ""button7"" value=""7"" onClick = ""pressSubmit(7, 81)""></div></div></div></div>","81","1193","62","5","luckycharms.bmp","","","","","","","","",""
"","1471","81","1471","-1","pre_task","poldrack-single-stim","65","150749","0.0-1.0-63.0","go_nogo","true","0","","<div class = bigBox><div class = pictureBox><img class='img.displayed' src='/static/experiments/gng_food/images/SourSkittles.bmp'></img></div><div class = sliderbox><div class = buttonBox><div class = Button1><input type=""button"" id = ""button1"" value=""1"" onClick = ""pressSubmit(1, 81)""></div><div class = Button2><input type=""button"" id = ""button2"" value=""2"" onClick = ""pressSubmit(2, 81)""></div><div class = Button3><input type=""button"" id = ""button3"" value=""3"" onClick = ""pressSubmit(3, 81)""></div><div class = Button4><input type=""button"" id = ""button4"" value=""4"" onClick = ""pressSubmit(4, 81)""></div><div class = Button5><input type=""button"" id = ""button5"" value=""5"" onClick = ""pressSubmit(5, 81)""></div><div class = Button6><input type=""button"" id = ""button6"" value=""6"" onClick = ""pressSubmit(6, 81)""></div><div class = Button7><input type=""button"" id = ""button7"" value=""7"" onClick = ""pressSubmit(7, 81)""></div></div></div></div>","81","1471","63","5","SourSkittles.bmp","","","","","","","","",""
"","1460","81","1460","-1","pre_task","poldrack-single-stim","66","152212","0.0-1.0-64.0","go_nogo","true","0","","<div class = bigBox><div class = pictureBox><img class='img.displayed' src='/static/experiments/gng_food/images/pizza.bmp'></img></div><div class = sliderbox><div class = buttonBox><div class = Button1><input type=""button"" id = ""button1"" value=""1"" onClick = ""pressSubmit(1, 81)""></div><div class = Button2><input type=""button"" id = ""button2"" value=""2"" onClick = ""pressSubmit(2, 81)""></div><div class = Button3><input type=""button"" id = ""button3"" value=""3"" onClick = ""pressSubmit(3, 81)""></div><div class = Button4><input type=""button"" id = ""button4"" value=""4"" onClick = ""pressSubmit(4, 81)""></div><div class = Button5><input type=""button"" id = ""button5"" value=""5"" onClick = ""pressSubmit(5, 81)""></div><div class = Button6><input type=""button"" id = ""button6"" value=""6"" onClick = ""pressSubmit(6, 81)""></div><div class = Button7><input type=""button"" id = ""button7"" value=""7"" onClick = ""pressSubmit(7, 81)""></div></div></div></div>","81","1460","64","6","pizza.bmp","","","","","","","","",""
"","1877","81","1877","-1","pre_task","poldrack-single-stim","67","154090","0.0-1.0-65.0","go_nogo","true","0","","<div class = bigBox><div class = pictureBox><img class='img.displayed' src='/static/experiments/gng_food/images/icecreamsandwich.bmp'></img></div><div class = sliderbox><div class = buttonBox><div class = Button1><input type=""button"" id = ""button1"" value=""1"" onClick = ""pressSubmit(1, 81)""></div><div class = Button2><input type=""button"" id = ""button2"" value=""2"" onClick = ""pressSubmit(2, 81)""></div><div class = Button3><input type=""button"" id = ""button3"" value=""3"" onClick = ""pressSubmit(3, 81)""></div><div class = Button4><input type=""button"" id = ""button4"" value=""4"" onClick = ""pressSubmit(4, 81)""></div><div class = Button5><input type=""button"" id = ""button5"" value=""5"" onClick = ""pressSubmit(5, 81)""></div><div class = Button6><input type=""button"" id = ""button6"" value=""6"" onClick = ""pressSubmit(6, 81)""></div><div class = Button7><input type=""button"" id = ""button7"" value=""7"" onClick = ""pressSubmit(7, 81)""></div></div></div></div>","81","1877","65","6","icecreamsandwich.bmp","","","","","","","","",""
"","1315","81","1315","-1","pre_task","poldrack-single-stim","68","155407","0.0-1.0-66.0","go_nogo","true","0","","<div class = bigBox><div class = pictureBox><img class='img.displayed' src='/static/experiments/gng_food/images/wheatcrisps.bmp'></img></div><div class = sliderbox><div class = buttonBox><div class = Button1><input type=""button"" id = ""button1"" value=""1"" onClick = ""pressSubmit(1, 81)""></div><div class = Button2><input type=""button"" id = ""button2"" value=""2"" onClick = ""pressSubmit(2, 81)""></div><div class = Button3><input type=""button"" id = ""button3"" value=""3"" onClick = ""pressSubmit(3, 81)""></div><div class = Button4><input type=""button"" id = ""button4"" value=""4"" onClick = ""pressSubmit(4, 81)""></div><div class = Button5><input type=""button"" id = ""button5"" value=""5"" onClick = ""pressSubmit(5, 81)""></div><div class = Button6><input type=""button"" id = ""button6"" value=""6"" onClick = ""pressSubmit(6, 81)""></div><div class = Button7><input type=""button"" id = ""button7"" value=""7"" onClick = ""pressSubmit(7, 81)""></div></div></div></div>","81","1315","66","5","wheatcrisps.bmp","","","","","","","","",""
"","1349","81","1349","-1","pre_task","poldrack-single-stim","69","156757","0.0-1.0-67.0","go_nogo","true","0","","<div class = bigBox><div class = pictureBox><img class='img.displayed' src='/static/experiments/gng_food/images/banana.bmp'></img></div><div class = sliderbox><div class = buttonBox><div class = Button1><input type=""button"" id = ""button1"" value=""1"" onClick = ""pressSubmit(1, 81)""></div><div class = Button2><input type=""button"" id = ""button2"" value=""2"" onClick = ""pressSubmit(2, 81)""></div><div class = Button3><input type=""button"" id = ""button3"" value=""3"" onClick = ""pressSubmit(3, 81)""></div><div class = Button4><input type=""button"" id = ""button4"" value=""4"" onClick = ""pressSubmit(4, 81)""></div><div class = Button5><input type=""button"" id = ""button5"" value=""5"" onClick = ""pressSubmit(5, 81)""></div><div class = Button6><input type=""button"" id = ""button6"" value=""6"" onClick = ""pressSubmit(6, 81)""></div><div class = Button7><input type=""button"" id = ""button7"" value=""7"" onClick = ""pressSubmit(7, 81)""></div></div></div></div>","81","1349","67","5","banana.bmp","","","","","","","","",""
"","1203","81","1203","-1","pre_task","poldrack-single-stim","70","157961","0.0-1.0-68.0","go_nogo","true","0","","<div class = bigBox><div class = pictureBox><img class='img.displayed' src='/static/experiments/gng_food/images/Ruffles.bmp'></img></div><div class = sliderbox><div class = buttonBox><div class = Button1><input type=""button"" id = ""button1"" value=""1"" onClick = ""pressSubmit(1, 81)""></div><div class = Button2><input type=""button"" id = ""button2"" value=""2"" onClick = ""pressSubmit(2, 81)""></div><div class = Button3><input type=""button"" id = ""button3"" value=""3"" onClick = ""pressSubmit(3, 81)""></div><div class = Button4><input type=""button"" id = ""button4"" value=""4"" onClick = ""pressSubmit(4, 81)""></div><div class = Button5><input type=""button"" id = ""button5"" value=""5"" onClick = ""pressSubmit(5, 81)""></div><div class = Button6><input type=""button"" id = ""button6"" value=""6"" onClick = ""pressSubmit(6, 81)""></div><div class = Button7><input type=""button"" id = ""button7"" value=""7"" onClick = ""pressSubmit(7, 81)""></div></div></div></div>","81","1203","68","5","Ruffles.bmp","","","","","","","","",""
"","2756","81","2756","-1","pre_task","poldrack-single-stim","71","160717","0.0-1.0-69.0","go_nogo","true","0","","<div class = bigBox><div class = pictureBox><img class='img.displayed' src='/static/experiments/gng_food/images/haagendaas.bmp'></img></div><div class = sliderbox><div class = buttonBox><div class = Button1><input type=""button"" id = ""button1"" value=""1"" onClick = ""pressSubmit(1, 81)""></div><div class = Button2><input type=""button"" id = ""button2"" value=""2"" onClick = ""pressSubmit(2, 81)""></div><div class = Button3><input type=""button"" id = ""button3"" value=""3"" onClick = ""pressSubmit(3, 81)""></div><div class = Button4><input type=""button"" id = ""button4"" value=""4"" onClick = ""pressSubmit(4, 81)""></div><div class = Button5><input type=""button"" id = ""button5"" value=""5"" onClick = ""pressSubmit(5, 81)""></div><div class = Button6><input type=""button"" id = ""button6"" value=""6"" onClick = ""pressSubmit(6, 81)""></div><div class = Button7><input type=""button"" id = ""button7"" value=""7"" onClick = ""pressSubmit(7, 81)""></div></div></div></div>","81","2756","69","7","haagendaas.bmp","","","","","","","","",""
"","2372","81","2372","-1","pre_task","poldrack-single-stim","72","163090","0.0-1.0-70.0","go_nogo","true","0","","<div class = bigBox><div class = pictureBox><img class='img.displayed' src='/static/experiments/gng_food/images/Oreos.bmp'></img></div><div class = sliderbox><div class = buttonBox><div class = Button1><input type=""button"" id = ""button1"" value=""1"" onClick = ""pressSubmit(1, 81)""></div><div class = Button2><input type=""button"" id = ""button2"" value=""2"" onClick = ""pressSubmit(2, 81)""></div><div class = Button3><input type=""button"" id = ""button3"" value=""3"" onClick = ""pressSubmit(3, 81)""></div><div class = Button4><input type=""button"" id = ""button4"" value=""4"" onClick = ""pressSubmit(4, 81)""></div><div class = Button5><input type=""button"" id = ""button5"" value=""5"" onClick = ""pressSubmit(5, 81)""></div><div class = Button6><input type=""button"" id = ""button6"" value=""6"" onClick = ""pressSubmit(6, 81)""></div><div class = Button7><input type=""button"" id = ""button7"" value=""7"" onClick = ""pressSubmit(7, 81)""></div></div></div></div>","81","2372","70","6","Oreos.bmp","","","","","","","","",""
"","1180","81","1180","-1","pre_task","poldrack-single-stim","73","164271","0.0-1.0-71.0","go_nogo","true","0","","<div class = bigBox><div class = pictureBox><img class='img.displayed' src='/static/experiments/gng_food/images/orange.bmp'></img></div><div class = sliderbox><div class = buttonBox><div class = Button1><input type=""button"" id = ""button1"" value=""1"" onClick = ""pressSubmit(1, 81)""></div><div class = Button2><input type=""button"" id = ""button2"" value=""2"" onClick = ""pressSubmit(2, 81)""></div><div class = Button3><input type=""button"" id = ""button3"" value=""3"" onClick = ""pressSubmit(3, 81)""></div><div class = Button4><input type=""button"" id = ""button4"" value=""4"" onClick = ""pressSubmit(4, 81)""></div><div class = Button5><input type=""button"" id = ""button5"" value=""5"" onClick = ""pressSubmit(5, 81)""></div><div class = Button6><input type=""button"" id = ""button6"" value=""6"" onClick = ""pressSubmit(6, 81)""></div><div class = Button7><input type=""button"" id = ""button7"" value=""7"" onClick = ""pressSubmit(7, 81)""></div></div></div></div>","81","1180","71","5","orange.bmp","","","","","","","","",""
"","1687","81","1687","-1","pre_task","poldrack-single-stim","74","165959","0.0-1.0-72.0","go_nogo","true","0","","<div class = bigBox><div class = pictureBox><img class='img.displayed' src='/static/experiments/gng_food/images/HoHo.bmp'></img></div><div class = sliderbox><div class = buttonBox><div class = Button1><input type=""button"" id = ""button1"" value=""1"" onClick = ""pressSubmit(1, 81)""></div><div class = Button2><input type=""button"" id = ""button2"" value=""2"" onClick = ""pressSubmit(2, 81)""></div><div class = Button3><input type=""button"" id = ""button3"" value=""3"" onClick = ""pressSubmit(3, 81)""></div><div class = Button4><input type=""button"" id = ""button4"" value=""4"" onClick = ""pressSubmit(4, 81)""></div><div class = Button5><input type=""button"" id = ""button5"" value=""5"" onClick = ""pressSubmit(5, 81)""></div><div class = Button6><input type=""button"" id = ""button6"" value=""6"" onClick = ""pressSubmit(6, 81)""></div><div class = Button7><input type=""button"" id = ""button7"" value=""7"" onClick = ""pressSubmit(7, 81)""></div></div></div></div>","81","1687","72","3","HoHo.bmp","","","","","","","","",""
"","1597","81","1597","-1","pre_task","poldrack-single-stim","75","167557","0.0-1.0-73.0","go_nogo","true","0","","<div class = bigBox><div class = pictureBox><img class='img.displayed' src='/static/experiments/gng_food/images/hundredgrand_small.bmp'></img></div><div class = sliderbox><div class = buttonBox><div class = Button1><input type=""button"" id = ""button1"" value=""1"" onClick = ""pressSubmit(1, 81)""></div><div class = Button2><input type=""button"" id = ""button2"" value=""2"" onClick = ""pressSubmit(2, 81)""></div><div class = Button3><input type=""button"" id = ""button3"" value=""3"" onClick = ""pressSubmit(3, 81)""></div><div class = Button4><input type=""button"" id = ""button4"" value=""4"" onClick = ""pressSubmit(4, 81)""></div><div class = Button5><input type=""button"" id = ""button5"" value=""5"" onClick = ""pressSubmit(5, 81)""></div><div class = Button6><input type=""button"" id = ""button6"" value=""6"" onClick = ""pressSubmit(6, 81)""></div><div class = Button7><input type=""button"" id = ""button7"" value=""7"" onClick = ""pressSubmit(7, 81)""></div></div></div></div>","81","1597","73","6","hundredgrand_small.bmp","","","","","","","","",""
"","2473","81","2473","-1","pre_task","poldrack-single-stim","76","170032","0.0-1.0-74.0","go_nogo","true","0","","<div class = bigBox><div class = pictureBox><img class='img.displayed' src='/static/experiments/gng_food/images/vanillapudding.bmp'></img></div><div class = sliderbox><div class = buttonBox><div class = Button1><input type=""button"" id = ""button1"" value=""1"" onClick = ""pressSubmit(1, 81)""></div><div class = Button2><input type=""button"" id = ""button2"" value=""2"" onClick = ""pressSubmit(2, 81)""></div><div class = Button3><input type=""button"" id = ""button3"" value=""3"" onClick = ""pressSubmit(3, 81)""></div><div class = Button4><input type=""button"" id = ""button4"" value=""4"" onClick = ""pressSubmit(4, 81)""></div><div class = Button5><input type=""button"" id = ""button5"" value=""5"" onClick = ""pressSubmit(5, 81)""></div><div class = Button6><input type=""button"" id = ""button6"" value=""6"" onClick = ""pressSubmit(6, 81)""></div><div class = Button7><input type=""button"" id = ""button7"" value=""7"" onClick = ""pressSubmit(7, 81)""></div></div></div></div>","81","2473","74","5","vanillapudding.bmp","","","","","","","","",""
"","2013","81","2013","-1","pre_task","poldrack-single-stim","77","172046","0.0-1.0-75.0","go_nogo","true","0","","<div class = bigBox><div class = pictureBox><img class='img.displayed' src='/static/experiments/gng_food/images/Cheetos.bmp'></img></div><div class = sliderbox><div class = buttonBox><div class = Button1><input type=""button"" id = ""button1"" value=""1"" onClick = ""pressSubmit(1, 81)""></div><div class = Button2><input type=""button"" id = ""button2"" value=""2"" onClick = ""pressSubmit(2, 81)""></div><div class = Button3><input type=""button"" id = ""button3"" value=""3"" onClick = ""pressSubmit(3, 81)""></div><div class = Button4><input type=""button"" id = ""button4"" value=""4"" onClick = ""pressSubmit(4, 81)""></div><div class = Button5><input type=""button"" id = ""button5"" value=""5"" onClick = ""pressSubmit(5, 81)""></div><div class = Button6><input type=""button"" id = ""button6"" value=""6"" onClick = ""pressSubmit(6, 81)""></div><div class = Button7><input type=""button"" id = ""button7"" value=""7"" onClick = ""pressSubmit(7, 81)""></div></div></div></div>","81","2013","75","6","Cheetos.bmp","","","","","","","","",""
"","1462","81","1462","-1","pre_task","poldrack-single-stim","78","173508","0.0-1.0-76.0","go_nogo","true","0","","<div class = bigBox><div class = pictureBox><img class='img.displayed' src='/static/experiments/gng_food/images/RiceKrispyTreat_small.bmp'></img></div><div class = sliderbox><div class = buttonBox><div class = Button1><input type=""button"" id = ""button1"" value=""1"" onClick = ""pressSubmit(1, 81)""></div><div class = Button2><input type=""button"" id = ""button2"" value=""2"" onClick = ""pressSubmit(2, 81)""></div><div class = Button3><input type=""button"" id = ""button3"" value=""3"" onClick = ""pressSubmit(3, 81)""></div><div class = Button4><input type=""button"" id = ""button4"" value=""4"" onClick = ""pressSubmit(4, 81)""></div><div class = Button5><input type=""button"" id = ""button5"" value=""5"" onClick = ""pressSubmit(5, 81)""></div><div class = Button6><input type=""button"" id = ""button6"" value=""6"" onClick = ""pressSubmit(6, 81)""></div><div class = Button7><input type=""button"" id = ""button7"" value=""7"" onClick = ""pressSubmit(7, 81)""></div></div></div></div>","81","1462","76","5","RiceKrispyTreat_small.bmp","","","","","","","","",""
"","2012","81","2012","-1","pre_task","poldrack-single-stim","79","175522","0.0-1.0-77.0","go_nogo","true","0","","<div class = bigBox><div class = pictureBox><img class='img.displayed' src='/static/experiments/gng_food/images/TootsieRolls.bmp'></img></div><div class = sliderbox><div class = buttonBox><div class = Button1><input type=""button"" id = ""button1"" value=""1"" onClick = ""pressSubmit(1, 81)""></div><div class = Button2><input type=""button"" id = ""button2"" value=""2"" onClick = ""pressSubmit(2, 81)""></div><div class = Button3><input type=""button"" id = ""button3"" value=""3"" onClick = ""pressSubmit(3, 81)""></div><div class = Button4><input type=""button"" id = ""button4"" value=""4"" onClick = ""pressSubmit(4, 81)""></div><div class = Button5><input type=""button"" id = ""button5"" value=""5"" onClick = ""pressSubmit(5, 81)""></div><div class = Button6><input type=""button"" id = ""button6"" value=""6"" onClick = ""pressSubmit(6, 81)""></div><div class = Button7><input type=""button"" id = ""button7"" value=""7"" onClick = ""pressSubmit(7, 81)""></div></div></div></div>","81","2012","77","7","TootsieRolls.bmp","","","","","","","","",""
"","1361","81","1361","-1","pre_task","poldrack-single-stim","80","176883","0.0-1.0-78.0","go_nogo","true","0","","<div class = bigBox><div class = pictureBox><img class='img.displayed' src='/static/experiments/gng_food/images/Twix.bmp'></img></div><div class = sliderbox><div class = buttonBox><div class = Button1><input type=""button"" id = ""button1"" value=""1"" onClick = ""pressSubmit(1, 81)""></div><div class = Button2><input type=""button"" id = ""button2"" value=""2"" onClick = ""pressSubmit(2, 81)""></div><div class = Button3><input type=""button"" id = ""button3"" value=""3"" onClick = ""pressSubmit(3, 81)""></div><div class = Button4><input type=""button"" id = ""button4"" value=""4"" onClick = ""pressSubmit(4, 81)""></div><div class = Button5><input type=""button"" id = ""button5"" value=""5"" onClick = ""pressSubmit(5, 81)""></div><div class = Button6><input type=""button"" id = ""button6"" value=""6"" onClick = ""pressSubmit(6, 81)""></div><div class = Button7><input type=""button"" id = ""button7"" value=""7"" onClick = ""pressSubmit(7, 81)""></div></div></div></div>","81","1361","78","6","Twix.bmp","","","","","","","","",""
"","1011","81","1011","-1","pre_task","poldrack-single-stim","81","177896","0.0-1.0-79.0","go_nogo","true","0","","<div class = bigBox><div class = pictureBox><img class='img.displayed' src='/static/experiments/gng_food/images/hersheykisses.bmp'></img></div><div class = sliderbox><div class = buttonBox><div class = Button1><input type=""button"" id = ""button1"" value=""1"" onClick = ""pressSubmit(1, 81)""></div><div class = Button2><input type=""button"" id = ""button2"" value=""2"" onClick = ""pressSubmit(2, 81)""></div><div class = Button3><input type=""button"" id = ""button3"" value=""3"" onClick = ""pressSubmit(3, 81)""></div><div class = Button4><input type=""button"" id = ""button4"" value=""4"" onClick = ""pressSubmit(4, 81)""></div><div class = Button5><input type=""button"" id = ""button5"" value=""5"" onClick = ""pressSubmit(5, 81)""></div><div class = Button6><input type=""button"" id = ""button6"" value=""6"" onClick = ""pressSubmit(6, 81)""></div><div class = Button7><input type=""button"" id = ""button7"" value=""7"" onClick = ""pressSubmit(7, 81)""></div></div></div></div>","81","1011","79","6","hersheykisses.bmp","","","","","","","","",""
"","1687","81","1687","-1","pre_task","poldrack-single-stim","82","179583","0.0-1.0-80.0","go_nogo","true","0","","<div class = bigBox><div class = pictureBox><img class='img.displayed' src='/static/experiments/gng_food/images/carrots.bmp'></img></div><div class = sliderbox><div class = buttonBox><div class = Button1><input type=""button"" id = ""button1"" value=""1"" onClick = ""pressSubmit(1, 81)""></div><div class = Button2><input type=""button"" id = ""button2"" value=""2"" onClick = ""pressSubmit(2, 81)""></div><div class = Button3><input type=""button"" id = ""button3"" value=""3"" onClick = ""pressSubmit(3, 81)""></div><div class = Button4><input type=""button"" id = ""button4"" value=""4"" onClick = ""pressSubmit(4, 81)""></div><div class = Button5><input type=""button"" id = ""button5"" value=""5"" onClick = ""pressSubmit(5, 81)""></div><div class = Button6><input type=""button"" id = ""button6"" value=""6"" onClick = ""pressSubmit(6, 81)""></div><div class = Button7><input type=""button"" id = ""button7"" value=""7"" onClick = ""pressSubmit(7, 81)""></div></div></div></div>","81","1687","80","5","carrots.bmp","","","","","","","","",""
"","1776","81","1776","-1","pre_task","poldrack-single-stim","83","181361","0.0-1.0-81.0","go_nogo","true","0","","<div class = bigBox><div class = pictureBox><img class='img.displayed' src='/static/experiments/gng_food/images/jollyrancheryellow.bmp'></img></div><div class = sliderbox><div class = buttonBox><div class = Button1><input type=""button"" id = ""button1"" value=""1"" onClick = ""pressSubmit(1, 81)""></div><div class = Button2><input type=""button"" id = ""button2"" value=""2"" onClick = ""pressSubmit(2, 81)""></div><div class = Button3><input type=""button"" id = ""button3"" value=""3"" onClick = ""pressSubmit(3, 81)""></div><div class = Button4><input type=""button"" id = ""button4"" value=""4"" onClick = ""pressSubmit(4, 81)""></div><div class = Button5><input type=""button"" id = ""button5"" value=""5"" onClick = ""pressSubmit(5, 81)""></div><div class = Button6><input type=""button"" id = ""button6"" value=""6"" onClick = ""pressSubmit(6, 81)""></div><div class = Button7><input type=""button"" id = ""button7"" value=""7"" onClick = ""pressSubmit(7, 81)""></div></div></div></div>","81","1776","81","5","jollyrancheryellow.bmp","","","","","","","","",""
"","1316","81","1316","-1","pre_task","poldrack-single-stim","84","182677","0.0-1.0-82.0","go_nogo","true","0","","<div class = bigBox><div class = pictureBox><img class='img.displayed' src='/static/experiments/gng_food/images/sbdietbar.bmp'></img></div><div class = sliderbox><div class = buttonBox><div class = Button1><input type=""button"" id = ""button1"" value=""1"" onClick = ""pressSubmit(1, 81)""></div><div class = Button2><input type=""button"" id = ""button2"" value=""2"" onClick = ""pressSubmit(2, 81)""></div><div class = Button3><input type=""button"" id = ""button3"" value=""3"" onClick = ""pressSubmit(3, 81)""></div><div class = Button4><input type=""button"" id = ""button4"" value=""4"" onClick = ""pressSubmit(4, 81)""></div><div class = Button5><input type=""button"" id = ""button5"" value=""5"" onClick = ""pressSubmit(5, 81)""></div><div class = Button6><input type=""button"" id = ""button6"" value=""6"" onClick = ""pressSubmit(6, 81)""></div><div class = Button7><input type=""button"" id = ""button7"" value=""7"" onClick = ""pressSubmit(7, 81)""></div></div></div></div>","81","1316","82","5","sbdietbar.bmp","","","","","","","","",""
"","2507","81","2507","-1","pre_task","poldrack-single-stim","85","185186","0.0-1.0-83.0","go_nogo","true","0","","<div class = bigBox><div class = pictureBox><img class='img.displayed' src='/static/experiments/gng_food/images/ChocolateDonuts.bmp'></img></div><div class = sliderbox><div class = buttonBox><div class = Button1><input type=""button"" id = ""button1"" value=""1"" onClick = ""pressSubmit(1, 81)""></div><div class = Button2><input type=""button"" id = ""button2"" value=""2"" onClick = ""pressSubmit(2, 81)""></div><div class = Button3><input type=""button"" id = ""button3"" value=""3"" onClick = ""pressSubmit(3, 81)""></div><div class = Button4><input type=""button"" id = ""button4"" value=""4"" onClick = ""pressSubmit(4, 81)""></div><div class = Button5><input type=""button"" id = ""button5"" value=""5"" onClick = ""pressSubmit(5, 81)""></div><div class = Button6><input type=""button"" id = ""button6"" value=""6"" onClick = ""pressSubmit(6, 81)""></div><div class = Button7><input type=""button"" id = ""button7"" value=""7"" onClick = ""pressSubmit(7, 81)""></div></div></div></div>","81","2507","83","4","ChocolateDonuts.bmp","","","","","","","","",""
