"text","rt","key_press","block_duration","timing_post_trial","trial_id","trial_type","trial_index","time_elapsed","internal_node_id","exp_id","full_screen","focus_shifts","view_history","stimulus","possible_responses","stim_duration","trial_num","initial_rating","preTaskStim","exp_stage","correct_response","correct","stim","accuracy","final_rating","postTaskStim","condition","difference"
"<div class = bigBox><div class = welcomeBox><p class = center-block-text><font color = ""white"">Welcome to the experiment. This experiment had 3 phases and will take about 40 minutes. Press <strong>enter</strong> to begin.</font></p></div></div>","35907","13","35907","-1","instruction","poldrack-text","0","35908","0.0-0.0-0.0","go_nogo","true","0","","","","","","","","","","","","","","","",""
"","17325","","","","instruction","poldrack-instructions","1","53234","0.0-0.0-1.0","go_nogo","true","0","[{""page_index"":0,""viewing_time"":17324}]","","","","","","","","","","","","","","",""
"","5916","81","5916","-1","pre_task","poldrack-single-stim","2","59151","0.0-1.0-0.0","go_nogo","true","0","","<div class = bigBox><div class = pictureBox><img class='img.displayed' src='/static/experiments/gng_food/images/FlamingCheetos.bmp'></img></div><div class = sliderbox><div class = buttonBox><div class = Button1><input type=""button"" id = ""button1"" value=""1"" onClick = ""pressSubmit(1, 81)""></div><div class = Button2><input type=""button"" id = ""button2"" value=""2"" onClick = ""pressSubmit(2, 81)""></div><div class = Button3><input type=""button"" id = ""button3"" value=""3"" onClick = ""pressSubmit(3, 81)""></div><div class = Button4><input type=""button"" id = ""button4"" value=""4"" onClick = ""pressSubmit(4, 81)""></div><div class = Button5><input type=""button"" id = ""button5"" value=""5"" onClick = ""pressSubmit(5, 81)""></div><div class = Button6><input type=""button"" id = ""button6"" value=""6"" onClick = ""pressSubmit(6, 81)""></div><div class = Button7><input type=""button"" id = ""button7"" value=""7"" onClick = ""pressSubmit(7, 81)""></div></div></div></div>","81","5916","0","5","FlamingCheetos.bmp","","","","","","","","",""
"","3047","81","3047","-1","pre_task","poldrack-single-stim","3","62200","0.0-1.0-1.0","go_nogo","true","0","","<div class = bigBox><div class = pictureBox><img class='img.displayed' src='/static/experiments/gng_food/images/ChocolateDonuts.bmp'></img></div><div class = sliderbox><div class = buttonBox><div class = Button1><input type=""button"" id = ""button1"" value=""1"" onClick = ""pressSubmit(1, 81)""></div><div class = Button2><input type=""button"" id = ""button2"" value=""2"" onClick = ""pressSubmit(2, 81)""></div><div class = Button3><input type=""button"" id = ""button3"" value=""3"" onClick = ""pressSubmit(3, 81)""></div><div class = Button4><input type=""button"" id = ""button4"" value=""4"" onClick = ""pressSubmit(4, 81)""></div><div class = Button5><input type=""button"" id = ""button5"" value=""5"" onClick = ""pressSubmit(5, 81)""></div><div class = Button6><input type=""button"" id = ""button6"" value=""6"" onClick = ""pressSubmit(6, 81)""></div><div class = Button7><input type=""button"" id = ""button7"" value=""7"" onClick = ""pressSubmit(7, 81)""></div></div></div></div>","81","3047","1","2","ChocolateDonuts.bmp","","","","","","","","",""
"","1765","81","1765","-1","pre_task","poldrack-single-stim","4","63966","0.0-1.0-2.0","go_nogo","true","0","","<div class = bigBox><div class = pictureBox><img class='img.displayed' src='/static/experiments/gng_food/images/ChipsAhoy_small.bmp'></img></div><div class = sliderbox><div class = buttonBox><div class = Button1><input type=""button"" id = ""button1"" value=""1"" onClick = ""pressSubmit(1, 81)""></div><div class = Button2><input type=""button"" id = ""button2"" value=""2"" onClick = ""pressSubmit(2, 81)""></div><div class = Button3><input type=""button"" id = ""button3"" value=""3"" onClick = ""pressSubmit(3, 81)""></div><div class = Button4><input type=""button"" id = ""button4"" value=""4"" onClick = ""pressSubmit(4, 81)""></div><div class = Button5><input type=""button"" id = ""button5"" value=""5"" onClick = ""pressSubmit(5, 81)""></div><div class = Button6><input type=""button"" id = ""button6"" value=""6"" onClick = ""pressSubmit(6, 81)""></div><div class = Button7><input type=""button"" id = ""button7"" value=""7"" onClick = ""pressSubmit(7, 81)""></div></div></div></div>","81","1765","2","5","ChipsAhoy_small.bmp","","","","","","","","",""
"","1832","81","1832","-1","pre_task","poldrack-single-stim","5","65800","0.0-1.0-3.0","go_nogo","true","0","","<div class = bigBox><div class = pictureBox><img class='img.displayed' src='/static/experiments/gng_food/images/chocolate_mm.bmp'></img></div><div class = sliderbox><div class = buttonBox><div class = Button1><input type=""button"" id = ""button1"" value=""1"" onClick = ""pressSubmit(1, 81)""></div><div class = Button2><input type=""button"" id = ""button2"" value=""2"" onClick = ""pressSubmit(2, 81)""></div><div class = Button3><input type=""button"" id = ""button3"" value=""3"" onClick = ""pressSubmit(3, 81)""></div><div class = Button4><input type=""button"" id = ""button4"" value=""4"" onClick = ""pressSubmit(4, 81)""></div><div class = Button5><input type=""button"" id = ""button5"" value=""5"" onClick = ""pressSubmit(5, 81)""></div><div class = Button6><input type=""button"" id = ""button6"" value=""6"" onClick = ""pressSubmit(6, 81)""></div><div class = Button7><input type=""button"" id = ""button7"" value=""7"" onClick = ""pressSubmit(7, 81)""></div></div></div></div>","81","1832","3","6","chocolate_mm.bmp","","","","","","","","",""
"","3239","81","3239","-1","pre_task","poldrack-single-stim","6","69040","0.0-1.0-4.0","go_nogo","true","0","","<div class = bigBox><div class = pictureBox><img class='img.displayed' src='/static/experiments/gng_food/images/MrGoodbar.bmp'></img></div><div class = sliderbox><div class = buttonBox><div class = Button1><input type=""button"" id = ""button1"" value=""1"" onClick = ""pressSubmit(1, 81)""></div><div class = Button2><input type=""button"" id = ""button2"" value=""2"" onClick = ""pressSubmit(2, 81)""></div><div class = Button3><input type=""button"" id = ""button3"" value=""3"" onClick = ""pressSubmit(3, 81)""></div><div class = Button4><input type=""button"" id = ""button4"" value=""4"" onClick = ""pressSubmit(4, 81)""></div><div class = Button5><input type=""button"" id = ""button5"" value=""5"" onClick = ""pressSubmit(5, 81)""></div><div class = Button6><input type=""button"" id = ""button6"" value=""6"" onClick = ""pressSubmit(6, 81)""></div><div class = Button7><input type=""button"" id = ""button7"" value=""7"" onClick = ""pressSubmit(7, 81)""></div></div></div></div>","81","3239","4","4","MrGoodbar.bmp","","","","","","","","",""
"","1698","81","1698","-1","pre_task","poldrack-single-stim","7","70738","0.0-1.0-5.0","go_nogo","true","0","","<div class = bigBox><div class = pictureBox><img class='img.displayed' src='/static/experiments/gng_food/images/TootsieRolls.bmp'></img></div><div class = sliderbox><div class = buttonBox><div class = Button1><input type=""button"" id = ""button1"" value=""1"" onClick = ""pressSubmit(1, 81)""></div><div class = Button2><input type=""button"" id = ""button2"" value=""2"" onClick = ""pressSubmit(2, 81)""></div><div class = Button3><input type=""button"" id = ""button3"" value=""3"" onClick = ""pressSubmit(3, 81)""></div><div class = Button4><input type=""button"" id = ""button4"" value=""4"" onClick = ""pressSubmit(4, 81)""></div><div class = Button5><input type=""button"" id = ""button5"" value=""5"" onClick = ""pressSubmit(5, 81)""></div><div class = Button6><input type=""button"" id = ""button6"" value=""6"" onClick = ""pressSubmit(6, 81)""></div><div class = Button7><input type=""button"" id = ""button7"" value=""7"" onClick = ""pressSubmit(7, 81)""></div></div></div></div>","81","1698","5","5","TootsieRolls.bmp","","","","","","","","",""
"","1855","81","1855","-1","pre_task","poldrack-single-stim","8","72595","0.0-1.0-6.0","go_nogo","true","0","","<div class = bigBox><div class = pictureBox><img class='img.displayed' src='/static/experiments/gng_food/images/Ruffles.bmp'></img></div><div class = sliderbox><div class = buttonBox><div class = Button1><input type=""button"" id = ""button1"" value=""1"" onClick = ""pressSubmit(1, 81)""></div><div class = Button2><input type=""button"" id = ""button2"" value=""2"" onClick = ""pressSubmit(2, 81)""></div><div class = Button3><input type=""button"" id = ""button3"" value=""3"" onClick = ""pressSubmit(3, 81)""></div><div class = Button4><input type=""button"" id = ""button4"" value=""4"" onClick = ""pressSubmit(4, 81)""></div><div class = Button5><input type=""button"" id = ""button5"" value=""5"" onClick = ""pressSubmit(5, 81)""></div><div class = Button6><input type=""button"" id = ""button6"" value=""6"" onClick = ""pressSubmit(6, 81)""></div><div class = Button7><input type=""button"" id = ""button7"" value=""7"" onClick = ""pressSubmit(7, 81)""></div></div></div></div>","81","1855","6","6","Ruffles.bmp","","","","","","","","",""
"","2485","81","2485","-1","pre_task","poldrack-single-stim","9","75081","0.0-1.0-7.0","go_nogo","true","0","","<div class = bigBox><div class = pictureBox><img class='img.displayed' src='/static/experiments/gng_food/images/Twix.bmp'></img></div><div class = sliderbox><div class = buttonBox><div class = Button1><input type=""button"" id = ""button1"" value=""1"" onClick = ""pressSubmit(1, 81)""></div><div class = Button2><input type=""button"" id = ""button2"" value=""2"" onClick = ""pressSubmit(2, 81)""></div><div class = Button3><input type=""button"" id = ""button3"" value=""3"" onClick = ""pressSubmit(3, 81)""></div><div class = Button4><input type=""button"" id = ""button4"" value=""4"" onClick = ""pressSubmit(4, 81)""></div><div class = Button5><input type=""button"" id = ""button5"" value=""5"" onClick = ""pressSubmit(5, 81)""></div><div class = Button6><input type=""button"" id = ""button6"" value=""6"" onClick = ""pressSubmit(6, 81)""></div><div class = Button7><input type=""button"" id = ""button7"" value=""7"" onClick = ""pressSubmit(7, 81)""></div></div></div></div>","81","2485","7","7","Twix.bmp","","","","","","","","",""
"","1889","81","1889","-1","pre_task","poldrack-single-stim","10","76971","0.0-1.0-8.0","go_nogo","true","0","","<div class = bigBox><div class = pictureBox><img class='img.displayed' src='/static/experiments/gng_food/images/grannysmith.bmp'></img></div><div class = sliderbox><div class = buttonBox><div class = Button1><input type=""button"" id = ""button1"" value=""1"" onClick = ""pressSubmit(1, 81)""></div><div class = Button2><input type=""button"" id = ""button2"" value=""2"" onClick = ""pressSubmit(2, 81)""></div><div class = Button3><input type=""button"" id = ""button3"" value=""3"" onClick = ""pressSubmit(3, 81)""></div><div class = Button4><input type=""button"" id = ""button4"" value=""4"" onClick = ""pressSubmit(4, 81)""></div><div class = Button5><input type=""button"" id = ""button5"" value=""5"" onClick = ""pressSubmit(5, 81)""></div><div class = Button6><input type=""button"" id = ""button6"" value=""6"" onClick = ""pressSubmit(6, 81)""></div><div class = Button7><input type=""button"" id = ""button7"" value=""7"" onClick = ""pressSubmit(7, 81)""></div></div></div></div>","81","1889","8","5","grannysmith.bmp","","","","","","","","",""
"","3971","81","3971","-1","pre_task","poldrack-single-stim","11","80943","0.0-1.0-9.0","go_nogo","true","0","","<div class = bigBox><div class = pictureBox><img class='img.displayed' src='/static/experiments/gng_food/images/sbcrackers.bmp'></img></div><div class = sliderbox><div class = buttonBox><div class = Button1><input type=""button"" id = ""button1"" value=""1"" onClick = ""pressSubmit(1, 81)""></div><div class = Button2><input type=""button"" id = ""button2"" value=""2"" onClick = ""pressSubmit(2, 81)""></div><div class = Button3><input type=""button"" id = ""button3"" value=""3"" onClick = ""pressSubmit(3, 81)""></div><div class = Button4><input type=""button"" id = ""button4"" value=""4"" onClick = ""pressSubmit(4, 81)""></div><div class = Button5><input type=""button"" id = ""button5"" value=""5"" onClick = ""pressSubmit(5, 81)""></div><div class = Button6><input type=""button"" id = ""button6"" value=""6"" onClick = ""pressSubmit(6, 81)""></div><div class = Button7><input type=""button"" id = ""button7"" value=""7"" onClick = ""pressSubmit(7, 81)""></div></div></div></div>","81","3971","9","3","sbcrackers.bmp","","","","","","","","",""
"","1810","81","1810","-1","pre_task","poldrack-single-stim","12","82753","0.0-1.0-10.0","go_nogo","true","0","","<div class = bigBox><div class = pictureBox><img class='img.displayed' src='/static/experiments/gng_food/images/AnimalCrackers.bmp'></img></div><div class = sliderbox><div class = buttonBox><div class = Button1><input type=""button"" id = ""button1"" value=""1"" onClick = ""pressSubmit(1, 81)""></div><div class = Button2><input type=""button"" id = ""button2"" value=""2"" onClick = ""pressSubmit(2, 81)""></div><div class = Button3><input type=""button"" id = ""button3"" value=""3"" onClick = ""pressSubmit(3, 81)""></div><div class = Button4><input type=""button"" id = ""button4"" value=""4"" onClick = ""pressSubmit(4, 81)""></div><div class = Button5><input type=""button"" id = ""button5"" value=""5"" onClick = ""pressSubmit(5, 81)""></div><div class = Button6><input type=""button"" id = ""button6"" value=""6"" onClick = ""pressSubmit(6, 81)""></div><div class = Button7><input type=""button"" id = ""button7"" value=""7"" onClick = ""pressSubmit(7, 81)""></div></div></div></div>","81","1810","10","5","AnimalCrackers.bmp","","","","","","","","",""
"","2721","81","2721","-1","pre_task","poldrack-single-stim","13","85476","0.0-1.0-11.0","go_nogo","true","0","","<div class = bigBox><div class = pictureBox><img class='img.displayed' src='/static/experiments/gng_food/images/chocpudding.bmp'></img></div><div class = sliderbox><div class = buttonBox><div class = Button1><input type=""button"" id = ""button1"" value=""1"" onClick = ""pressSubmit(1, 81)""></div><div class = Button2><input type=""button"" id = ""button2"" value=""2"" onClick = ""pressSubmit(2, 81)""></div><div class = Button3><input type=""button"" id = ""button3"" value=""3"" onClick = ""pressSubmit(3, 81)""></div><div class = Button4><input type=""button"" id = ""button4"" value=""4"" onClick = ""pressSubmit(4, 81)""></div><div class = Button5><input type=""button"" id = ""button5"" value=""5"" onClick = ""pressSubmit(5, 81)""></div><div class = Button6><input type=""button"" id = ""button6"" value=""6"" onClick = ""pressSubmit(6, 81)""></div><div class = Button7><input type=""button"" id = ""button7"" value=""7"" onClick = ""pressSubmit(7, 81)""></div></div></div></div>","81","2721","11","5","chocpudding.bmp","","","","","","","","",""
"","2081","81","2081","-1","pre_task","poldrack-single-stim","14","87558","0.0-1.0-12.0","go_nogo","true","0","","<div class = bigBox><div class = pictureBox><img class='img.displayed' src='/static/experiments/gng_food/images/BabyRuth.bmp'></img></div><div class = sliderbox><div class = buttonBox><div class = Button1><input type=""button"" id = ""button1"" value=""1"" onClick = ""pressSubmit(1, 81)""></div><div class = Button2><input type=""button"" id = ""button2"" value=""2"" onClick = ""pressSubmit(2, 81)""></div><div class = Button3><input type=""button"" id = ""button3"" value=""3"" onClick = ""pressSubmit(3, 81)""></div><div class = Button4><input type=""button"" id = ""button4"" value=""4"" onClick = ""pressSubmit(4, 81)""></div><div class = Button5><input type=""button"" id = ""button5"" value=""5"" onClick = ""pressSubmit(5, 81)""></div><div class = Button6><input type=""button"" id = ""button6"" value=""6"" onClick = ""pressSubmit(6, 81)""></div><div class = Button7><input type=""button"" id = ""button7"" value=""7"" onClick = ""pressSubmit(7, 81)""></div></div></div></div>","81","2081","12","2","BabyRuth.bmp","","","","","","","","",""
"","5658","81","5658","-1","pre_task","poldrack-single-stim","15","93216","0.0-1.0-13.0","go_nogo","true","0","","<div class = bigBox><div class = pictureBox><img class='img.displayed' src='/static/experiments/gng_food/images/carrots.bmp'></img></div><div class = sliderbox><div class = buttonBox><div class = Button1><input type=""button"" id = ""button1"" value=""1"" onClick = ""pressSubmit(1, 81)""></div><div class = Button2><input type=""button"" id = ""button2"" value=""2"" onClick = ""pressSubmit(2, 81)""></div><div class = Button3><input type=""button"" id = ""button3"" value=""3"" onClick = ""pressSubmit(3, 81)""></div><div class = Button4><input type=""button"" id = ""button4"" value=""4"" onClick = ""pressSubmit(4, 81)""></div><div class = Button5><input type=""button"" id = ""button5"" value=""5"" onClick = ""pressSubmit(5, 81)""></div><div class = Button6><input type=""button"" id = ""button6"" value=""6"" onClick = ""pressSubmit(6, 81)""></div><div class = Button7><input type=""button"" id = ""button7"" value=""7"" onClick = ""pressSubmit(7, 81)""></div></div></div></div>","81","5658","13","5","carrots.bmp","","","","","","","","",""
"","1844","81","1844","-1","pre_task","poldrack-single-stim","16","95061","0.0-1.0-14.0","go_nogo","true","0","","<div class = bigBox><div class = pictureBox><img class='img.displayed' src='/static/experiments/gng_food/images/slimfastC.bmp'></img></div><div class = sliderbox><div class = buttonBox><div class = Button1><input type=""button"" id = ""button1"" value=""1"" onClick = ""pressSubmit(1, 81)""></div><div class = Button2><input type=""button"" id = ""button2"" value=""2"" onClick = ""pressSubmit(2, 81)""></div><div class = Button3><input type=""button"" id = ""button3"" value=""3"" onClick = ""pressSubmit(3, 81)""></div><div class = Button4><input type=""button"" id = ""button4"" value=""4"" onClick = ""pressSubmit(4, 81)""></div><div class = Button5><input type=""button"" id = ""button5"" value=""5"" onClick = ""pressSubmit(5, 81)""></div><div class = Button6><input type=""button"" id = ""button6"" value=""6"" onClick = ""pressSubmit(6, 81)""></div><div class = Button7><input type=""button"" id = ""button7"" value=""7"" onClick = ""pressSubmit(7, 81)""></div></div></div></div>","81","1844","14","4","slimfastC.bmp","","","","","","","","",""
"","3881","81","3881","-1","pre_task","poldrack-single-stim","17","98942","0.0-1.0-15.0","go_nogo","true","0","","<div class = bigBox><div class = pictureBox><img class='img.displayed' src='/static/experiments/gng_food/images/TeddyGrahamschocolate.bmp'></img></div><div class = sliderbox><div class = buttonBox><div class = Button1><input type=""button"" id = ""button1"" value=""1"" onClick = ""pressSubmit(1, 81)""></div><div class = Button2><input type=""button"" id = ""button2"" value=""2"" onClick = ""pressSubmit(2, 81)""></div><div class = Button3><input type=""button"" id = ""button3"" value=""3"" onClick = ""pressSubmit(3, 81)""></div><div class = Button4><input type=""button"" id = ""button4"" value=""4"" onClick = ""pressSubmit(4, 81)""></div><div class = Button5><input type=""button"" id = ""button5"" value=""5"" onClick = ""pressSubmit(5, 81)""></div><div class = Button6><input type=""button"" id = ""button6"" value=""6"" onClick = ""pressSubmit(6, 81)""></div><div class = Button7><input type=""button"" id = ""button7"" value=""7"" onClick = ""pressSubmit(7, 81)""></div></div></div></div>","81","3881","15","5","TeddyGrahamschocolate.bmp","","","","","","","","",""
"","1866","81","1866","-1","pre_task","poldrack-single-stim","18","100810","0.0-1.0-16.0","go_nogo","true","0","","<div class = bigBox><div class = pictureBox><img class='img.displayed' src='/static/experiments/gng_food/images/butterfinger.bmp'></img></div><div class = sliderbox><div class = buttonBox><div class = Button1><input type=""button"" id = ""button1"" value=""1"" onClick = ""pressSubmit(1, 81)""></div><div class = Button2><input type=""button"" id = ""button2"" value=""2"" onClick = ""pressSubmit(2, 81)""></div><div class = Button3><input type=""button"" id = ""button3"" value=""3"" onClick = ""pressSubmit(3, 81)""></div><div class = Button4><input type=""button"" id = ""button4"" value=""4"" onClick = ""pressSubmit(4, 81)""></div><div class = Button5><input type=""button"" id = ""button5"" value=""5"" onClick = ""pressSubmit(5, 81)""></div><div class = Button6><input type=""button"" id = ""button6"" value=""6"" onClick = ""pressSubmit(6, 81)""></div><div class = Button7><input type=""button"" id = ""button7"" value=""7"" onClick = ""pressSubmit(7, 81)""></div></div></div></div>","81","1866","16","6","butterfinger.bmp","","","","","","","","",""
"","2711","81","2711","-1","pre_task","poldrack-single-stim","19","103521","0.0-1.0-17.0","go_nogo","true","0","","<div class = bigBox><div class = pictureBox><img class='img.displayed' src='/static/experiments/gng_food/images/Toberlorone.bmp'></img></div><div class = sliderbox><div class = buttonBox><div class = Button1><input type=""button"" id = ""button1"" value=""1"" onClick = ""pressSubmit(1, 81)""></div><div class = Button2><input type=""button"" id = ""button2"" value=""2"" onClick = ""pressSubmit(2, 81)""></div><div class = Button3><input type=""button"" id = ""button3"" value=""3"" onClick = ""pressSubmit(3, 81)""></div><div class = Button4><input type=""button"" id = ""button4"" value=""4"" onClick = ""pressSubmit(4, 81)""></div><div class = Button5><input type=""button"" id = ""button5"" value=""5"" onClick = ""pressSubmit(5, 81)""></div><div class = Button6><input type=""button"" id = ""button6"" value=""6"" onClick = ""pressSubmit(6, 81)""></div><div class = Button7><input type=""button"" id = ""button7"" value=""7"" onClick = ""pressSubmit(7, 81)""></div></div></div></div>","81","2711","17","6","Toberlorone.bmp","","","","","","","","",""
"","3509","81","3509","-1","pre_task","poldrack-single-stim","20","107031","0.0-1.0-18.0","go_nogo","true","0","","<div class = bigBox><div class = pictureBox><img class='img.displayed' src='/static/experiments/gng_food/images/milano.bmp'></img></div><div class = sliderbox><div class = buttonBox><div class = Button1><input type=""button"" id = ""button1"" value=""1"" onClick = ""pressSubmit(1, 81)""></div><div class = Button2><input type=""button"" id = ""button2"" value=""2"" onClick = ""pressSubmit(2, 81)""></div><div class = Button3><input type=""button"" id = ""button3"" value=""3"" onClick = ""pressSubmit(3, 81)""></div><div class = Button4><input type=""button"" id = ""button4"" value=""4"" onClick = ""pressSubmit(4, 81)""></div><div class = Button5><input type=""button"" id = ""button5"" value=""5"" onClick = ""pressSubmit(5, 81)""></div><div class = Button6><input type=""button"" id = ""button6"" value=""6"" onClick = ""pressSubmit(6, 81)""></div><div class = Button7><input type=""button"" id = ""button7"" value=""7"" onClick = ""pressSubmit(7, 81)""></div></div></div></div>","81","3509","18","5","milano.bmp","","","","","","","","",""
"","1754","81","1754","-1","pre_task","poldrack-single-stim","21","108786","0.0-1.0-19.0","go_nogo","true","0","","<div class = bigBox><div class = pictureBox><img class='img.displayed' src='/static/experiments/gng_food/images/KitKat_small.bmp'></img></div><div class = sliderbox><div class = buttonBox><div class = Button1><input type=""button"" id = ""button1"" value=""1"" onClick = ""pressSubmit(1, 81)""></div><div class = Button2><input type=""button"" id = ""button2"" value=""2"" onClick = ""pressSubmit(2, 81)""></div><div class = Button3><input type=""button"" id = ""button3"" value=""3"" onClick = ""pressSubmit(3, 81)""></div><div class = Button4><input type=""button"" id = ""button4"" value=""4"" onClick = ""pressSubmit(4, 81)""></div><div class = Button5><input type=""button"" id = ""button5"" value=""5"" onClick = ""pressSubmit(5, 81)""></div><div class = Button6><input type=""button"" id = ""button6"" value=""6"" onClick = ""pressSubmit(6, 81)""></div><div class = Button7><input type=""button"" id = ""button7"" value=""7"" onClick = ""pressSubmit(7, 81)""></div></div></div></div>","81","1754","19","7","KitKat_small.bmp","","","","","","","","",""
"","1529","81","1529","-1","pre_task","poldrack-single-stim","22","110317","0.0-1.0-20.0","go_nogo","true","0","","<div class = bigBox><div class = pictureBox><img class='img.displayed' src='/static/experiments/gng_food/images/luckycharms.bmp'></img></div><div class = sliderbox><div class = buttonBox><div class = Button1><input type=""button"" id = ""button1"" value=""1"" onClick = ""pressSubmit(1, 81)""></div><div class = Button2><input type=""button"" id = ""button2"" value=""2"" onClick = ""pressSubmit(2, 81)""></div><div class = Button3><input type=""button"" id = ""button3"" value=""3"" onClick = ""pressSubmit(3, 81)""></div><div class = Button4><input type=""button"" id = ""button4"" value=""4"" onClick = ""pressSubmit(4, 81)""></div><div class = Button5><input type=""button"" id = ""button5"" value=""5"" onClick = ""pressSubmit(5, 81)""></div><div class = Button6><input type=""button"" id = ""button6"" value=""6"" onClick = ""pressSubmit(6, 81)""></div><div class = Button7><input type=""button"" id = ""button7"" value=""7"" onClick = ""pressSubmit(7, 81)""></div></div></div></div>","81","1529","20","6","luckycharms.bmp","","","","","","","","",""
"","1394","81","1394","-1","pre_task","poldrack-single-stim","23","111712","0.0-1.0-21.0","go_nogo","true","0","","<div class = bigBox><div class = pictureBox><img class='img.displayed' src='/static/experiments/gng_food/images/grapenerds.bmp'></img></div><div class = sliderbox><div class = buttonBox><div class = Button1><input type=""button"" id = ""button1"" value=""1"" onClick = ""pressSubmit(1, 81)""></div><div class = Button2><input type=""button"" id = ""button2"" value=""2"" onClick = ""pressSubmit(2, 81)""></div><div class = Button3><input type=""button"" id = ""button3"" value=""3"" onClick = ""pressSubmit(3, 81)""></div><div class = Button4><input type=""button"" id = ""button4"" value=""4"" onClick = ""pressSubmit(4, 81)""></div><div class = Button5><input type=""button"" id = ""button5"" value=""5"" onClick = ""pressSubmit(5, 81)""></div><div class = Button6><input type=""button"" id = ""button6"" value=""6"" onClick = ""pressSubmit(6, 81)""></div><div class = Button7><input type=""button"" id = ""button7"" value=""7"" onClick = ""pressSubmit(7, 81)""></div></div></div></div>","81","1394","21","7","grapenerds.bmp","","","","","","","","",""
"","2744","81","2744","-1","pre_task","poldrack-single-stim","24","114456","0.0-1.0-22.0","go_nogo","true","0","","<div class = bigBox><div class = pictureBox><img class='img.displayed' src='/static/experiments/gng_food/images/SourSkittles.bmp'></img></div><div class = sliderbox><div class = buttonBox><div class = Button1><input type=""button"" id = ""button1"" value=""1"" onClick = ""pressSubmit(1, 81)""></div><div class = Button2><input type=""button"" id = ""button2"" value=""2"" onClick = ""pressSubmit(2, 81)""></div><div class = Button3><input type=""button"" id = ""button3"" value=""3"" onClick = ""pressSubmit(3, 81)""></div><div class = Button4><input type=""button"" id = ""button4"" value=""4"" onClick = ""pressSubmit(4, 81)""></div><div class = Button5><input type=""button"" id = ""button5"" value=""5"" onClick = ""pressSubmit(5, 81)""></div><div class = Button6><input type=""button"" id = ""button6"" value=""6"" onClick = ""pressSubmit(6, 81)""></div><div class = Button7><input type=""button"" id = ""button7"" value=""7"" onClick = ""pressSubmit(7, 81)""></div></div></div></div>","81","2744","22","3","SourSkittles.bmp","","","","","","","","",""
"","3633","81","3633","-1","pre_task","poldrack-single-stim","25","118090","0.0-1.0-23.0","go_nogo","true","0","","<div class = bigBox><div class = pictureBox><img class='img.displayed' src='/static/experiments/gng_food/images/Lindt_small.bmp'></img></div><div class = sliderbox><div class = buttonBox><div class = Button1><input type=""button"" id = ""button1"" value=""1"" onClick = ""pressSubmit(1, 81)""></div><div class = Button2><input type=""button"" id = ""button2"" value=""2"" onClick = ""pressSubmit(2, 81)""></div><div class = Button3><input type=""button"" id = ""button3"" value=""3"" onClick = ""pressSubmit(3, 81)""></div><div class = Button4><input type=""button"" id = ""button4"" value=""4"" onClick = ""pressSubmit(4, 81)""></div><div class = Button5><input type=""button"" id = ""button5"" value=""5"" onClick = ""pressSubmit(5, 81)""></div><div class = Button6><input type=""button"" id = ""button6"" value=""6"" onClick = ""pressSubmit(6, 81)""></div><div class = Button7><input type=""button"" id = ""button7"" value=""7"" onClick = ""pressSubmit(7, 81)""></div></div></div></div>","81","3633","23","5","Lindt_small.bmp","","","","","","","","",""
"","1416","81","1416","-1","pre_task","poldrack-single-stim","26","119508","0.0-1.0-24.0","go_nogo","true","0","","<div class = bigBox><div class = pictureBox><img class='img.displayed' src='/static/experiments/gng_food/images/Crunch.bmp'></img></div><div class = sliderbox><div class = buttonBox><div class = Button1><input type=""button"" id = ""button1"" value=""1"" onClick = ""pressSubmit(1, 81)""></div><div class = Button2><input type=""button"" id = ""button2"" value=""2"" onClick = ""pressSubmit(2, 81)""></div><div class = Button3><input type=""button"" id = ""button3"" value=""3"" onClick = ""pressSubmit(3, 81)""></div><div class = Button4><input type=""button"" id = ""button4"" value=""4"" onClick = ""pressSubmit(4, 81)""></div><div class = Button5><input type=""button"" id = ""button5"" value=""5"" onClick = ""pressSubmit(5, 81)""></div><div class = Button6><input type=""button"" id = ""button6"" value=""6"" onClick = ""pressSubmit(6, 81)""></div><div class = Button7><input type=""button"" id = ""button7"" value=""7"" onClick = ""pressSubmit(7, 81)""></div></div></div></div>","81","1416","24","6","Crunch.bmp","","","","","","","","",""
"","1833","81","1833","-1","pre_task","poldrack-single-stim","27","121341","0.0-1.0-25.0","go_nogo","true","0","","<div class = bigBox><div class = pictureBox><img class='img.displayed' src='/static/experiments/gng_food/images/MrsFields.bmp'></img></div><div class = sliderbox><div class = buttonBox><div class = Button1><input type=""button"" id = ""button1"" value=""1"" onClick = ""pressSubmit(1, 81)""></div><div class = Button2><input type=""button"" id = ""button2"" value=""2"" onClick = ""pressSubmit(2, 81)""></div><div class = Button3><input type=""button"" id = ""button3"" value=""3"" onClick = ""pressSubmit(3, 81)""></div><div class = Button4><input type=""button"" id = ""button4"" value=""4"" onClick = ""pressSubmit(4, 81)""></div><div class = Button5><input type=""button"" id = ""button5"" value=""5"" onClick = ""pressSubmit(5, 81)""></div><div class = Button6><input type=""button"" id = ""button6"" value=""6"" onClick = ""pressSubmit(6, 81)""></div><div class = Button7><input type=""button"" id = ""button7"" value=""7"" onClick = ""pressSubmit(7, 81)""></div></div></div></div>","81","1833","25","5","MrsFields.bmp","","","","","","","","",""
"","2620","81","2620","-1","pre_task","poldrack-single-stim","28","123963","0.0-1.0-26.0","go_nogo","true","0","","<div class = bigBox><div class = pictureBox><img class='img.displayed' src='/static/experiments/gng_food/images/haagendaas.bmp'></img></div><div class = sliderbox><div class = buttonBox><div class = Button1><input type=""button"" id = ""button1"" value=""1"" onClick = ""pressSubmit(1, 81)""></div><div class = Button2><input type=""button"" id = ""button2"" value=""2"" onClick = ""pressSubmit(2, 81)""></div><div class = Button3><input type=""button"" id = ""button3"" value=""3"" onClick = ""pressSubmit(3, 81)""></div><div class = Button4><input type=""button"" id = ""button4"" value=""4"" onClick = ""pressSubmit(4, 81)""></div><div class = Button5><input type=""button"" id = ""button5"" value=""5"" onClick = ""pressSubmit(5, 81)""></div><div class = Button6><input type=""button"" id = ""button6"" value=""6"" onClick = ""pressSubmit(6, 81)""></div><div class = Button7><input type=""button"" id = ""button7"" value=""7"" onClick = ""pressSubmit(7, 81)""></div></div></div></div>","81","2620","26","3","haagendaas.bmp","","","","","","","","",""
"","4274","81","4274","-1","pre_task","poldrack-single-stim","29","128238","0.0-1.0-27.0","go_nogo","true","0","","<div class = bigBox><div class = pictureBox><img class='img.displayed' src='/static/experiments/gng_food/images/ApplePie.bmp'></img></div><div class = sliderbox><div class = buttonBox><div class = Button1><input type=""button"" id = ""button1"" value=""1"" onClick = ""pressSubmit(1, 81)""></div><div class = Button2><input type=""button"" id = ""button2"" value=""2"" onClick = ""pressSubmit(2, 81)""></div><div class = Button3><input type=""button"" id = ""button3"" value=""3"" onClick = ""pressSubmit(3, 81)""></div><div class = Button4><input type=""button"" id = ""button4"" value=""4"" onClick = ""pressSubmit(4, 81)""></div><div class = Button5><input type=""button"" id = ""button5"" value=""5"" onClick = ""pressSubmit(5, 81)""></div><div class = Button6><input type=""button"" id = ""button6"" value=""6"" onClick = ""pressSubmit(6, 81)""></div><div class = Button7><input type=""button"" id = ""button7"" value=""7"" onClick = ""pressSubmit(7, 81)""></div></div></div></div>","81","4274","27","1","ApplePie.bmp","","","","","","","","",""
"","1776","81","1776","-1","pre_task","poldrack-single-stim","30","130015","0.0-1.0-28.0","go_nogo","true","0","","<div class = bigBox><div class = pictureBox><img class='img.displayed' src='/static/experiments/gng_food/images/cellery.bmp'></img></div><div class = sliderbox><div class = buttonBox><div class = Button1><input type=""button"" id = ""button1"" value=""1"" onClick = ""pressSubmit(1, 81)""></div><div class = Button2><input type=""button"" id = ""button2"" value=""2"" onClick = ""pressSubmit(2, 81)""></div><div class = Button3><input type=""button"" id = ""button3"" value=""3"" onClick = ""pressSubmit(3, 81)""></div><div class = Button4><input type=""button"" id = ""button4"" value=""4"" onClick = ""pressSubmit(4, 81)""></div><div class = Button5><input type=""button"" id = ""button5"" value=""5"" onClick = ""pressSubmit(5, 81)""></div><div class = Button6><input type=""button"" id = ""button6"" value=""6"" onClick = ""pressSubmit(6, 81)""></div><div class = Button7><input type=""button"" id = ""button7"" value=""7"" onClick = ""pressSubmit(7, 81)""></div></div></div></div>","81","1776","28","3","cellery.bmp","","","","","","","","",""
"","3273","81","3273","-1","pre_task","poldrack-single-stim","31","133289","0.0-1.0-29.0","go_nogo","true","0","","<div class = bigBox><div class = pictureBox><img class='img.displayed' src='/static/experiments/gng_food/images/Cheese_PeanutButterCrackers.bmp'></img></div><div class = sliderbox><div class = buttonBox><div class = Button1><input type=""button"" id = ""button1"" value=""1"" onClick = ""pressSubmit(1, 81)""></div><div class = Button2><input type=""button"" id = ""button2"" value=""2"" onClick = ""pressSubmit(2, 81)""></div><div class = Button3><input type=""button"" id = ""button3"" value=""3"" onClick = ""pressSubmit(3, 81)""></div><div class = Button4><input type=""button"" id = ""button4"" value=""4"" onClick = ""pressSubmit(4, 81)""></div><div class = Button5><input type=""button"" id = ""button5"" value=""5"" onClick = ""pressSubmit(5, 81)""></div><div class = Button6><input type=""button"" id = ""button6"" value=""6"" onClick = ""pressSubmit(6, 81)""></div><div class = Button7><input type=""button"" id = ""button7"" value=""7"" onClick = ""pressSubmit(7, 81)""></div></div></div></div>","81","3273","29","2","Cheese_PeanutButterCrackers.bmp","","","","","","","","",""
"","1709","81","1709","-1","pre_task","poldrack-single-stim","32","134999","0.0-1.0-30.0","go_nogo","true","0","","<div class = bigBox><div class = pictureBox><img class='img.displayed' src='/static/experiments/gng_food/images/bbqgoldfish.bmp'></img></div><div class = sliderbox><div class = buttonBox><div class = Button1><input type=""button"" id = ""button1"" value=""1"" onClick = ""pressSubmit(1, 81)""></div><div class = Button2><input type=""button"" id = ""button2"" value=""2"" onClick = ""pressSubmit(2, 81)""></div><div class = Button3><input type=""button"" id = ""button3"" value=""3"" onClick = ""pressSubmit(3, 81)""></div><div class = Button4><input type=""button"" id = ""button4"" value=""4"" onClick = ""pressSubmit(4, 81)""></div><div class = Button5><input type=""button"" id = ""button5"" value=""5"" onClick = ""pressSubmit(5, 81)""></div><div class = Button6><input type=""button"" id = ""button6"" value=""6"" onClick = ""pressSubmit(6, 81)""></div><div class = Button7><input type=""button"" id = ""button7"" value=""7"" onClick = ""pressSubmit(7, 81)""></div></div></div></div>","81","1709","30","3","bbqgoldfish.bmp","","","","","","","","",""
"","1933","81","1933","-1","pre_task","poldrack-single-stim","33","136934","0.0-1.0-31.0","go_nogo","true","0","","<div class = bigBox><div class = pictureBox><img class='img.displayed' src='/static/experiments/gng_food/images/HoHo.bmp'></img></div><div class = sliderbox><div class = buttonBox><div class = Button1><input type=""button"" id = ""button1"" value=""1"" onClick = ""pressSubmit(1, 81)""></div><div class = Button2><input type=""button"" id = ""button2"" value=""2"" onClick = ""pressSubmit(2, 81)""></div><div class = Button3><input type=""button"" id = ""button3"" value=""3"" onClick = ""pressSubmit(3, 81)""></div><div class = Button4><input type=""button"" id = ""button4"" value=""4"" onClick = ""pressSubmit(4, 81)""></div><div class = Button5><input type=""button"" id = ""button5"" value=""5"" onClick = ""pressSubmit(5, 81)""></div><div class = Button6><input type=""button"" id = ""button6"" value=""6"" onClick = ""pressSubmit(6, 81)""></div><div class = Button7><input type=""button"" id = ""button7"" value=""7"" onClick = ""pressSubmit(7, 81)""></div></div></div></div>","81","1933","31","5","HoHo.bmp","","","","","","","","",""
"","3262","81","3262","-1","pre_task","poldrack-single-stim","34","140197","0.0-1.0-32.0","go_nogo","true","0","","<div class = bigBox><div class = pictureBox><img class='img.displayed' src='/static/experiments/gng_food/images/icecreamsandwich.bmp'></img></div><div class = sliderbox><div class = buttonBox><div class = Button1><input type=""button"" id = ""button1"" value=""1"" onClick = ""pressSubmit(1, 81)""></div><div class = Button2><input type=""button"" id = ""button2"" value=""2"" onClick = ""pressSubmit(2, 81)""></div><div class = Button3><input type=""button"" id = ""button3"" value=""3"" onClick = ""pressSubmit(3, 81)""></div><div class = Button4><input type=""button"" id = ""button4"" value=""4"" onClick = ""pressSubmit(4, 81)""></div><div class = Button5><input type=""button"" id = ""button5"" value=""5"" onClick = ""pressSubmit(5, 81)""></div><div class = Button6><input type=""button"" id = ""button6"" value=""6"" onClick = ""pressSubmit(6, 81)""></div><div class = Button7><input type=""button"" id = ""button7"" value=""7"" onClick = ""pressSubmit(7, 81)""></div></div></div></div>","81","3262","32","3","icecreamsandwich.bmp","","","","","","","","",""
"","1866","81","1866","-1","pre_task","poldrack-single-stim","35","142064","0.0-1.0-33.0","go_nogo","true","0","","<div class = bigBox><div class = pictureBox><img class='img.displayed' src='/static/experiments/gng_food/images/Ghiradelli_milk_Almonds.bmp'></img></div><div class = sliderbox><div class = buttonBox><div class = Button1><input type=""button"" id = ""button1"" value=""1"" onClick = ""pressSubmit(1, 81)""></div><div class = Button2><input type=""button"" id = ""button2"" value=""2"" onClick = ""pressSubmit(2, 81)""></div><div class = Button3><input type=""button"" id = ""button3"" value=""3"" onClick = ""pressSubmit(3, 81)""></div><div class = Button4><input type=""button"" id = ""button4"" value=""4"" onClick = ""pressSubmit(4, 81)""></div><div class = Button5><input type=""button"" id = ""button5"" value=""5"" onClick = ""pressSubmit(5, 81)""></div><div class = Button6><input type=""button"" id = ""button6"" value=""6"" onClick = ""pressSubmit(6, 81)""></div><div class = Button7><input type=""button"" id = ""button7"" value=""7"" onClick = ""pressSubmit(7, 81)""></div></div></div></div>","81","1866","33","6","Ghiradelli_milk_Almonds.bmp","","","","","","","","",""
"","2327","81","2327","-1","pre_task","poldrack-single-stim","36","144393","0.0-1.0-34.0","go_nogo","true","0","","<div class = bigBox><div class = pictureBox><img class='img.displayed' src='/static/experiments/gng_food/images/PopTartsStrawberry.bmp'></img></div><div class = sliderbox><div class = buttonBox><div class = Button1><input type=""button"" id = ""button1"" value=""1"" onClick = ""pressSubmit(1, 81)""></div><div class = Button2><input type=""button"" id = ""button2"" value=""2"" onClick = ""pressSubmit(2, 81)""></div><div class = Button3><input type=""button"" id = ""button3"" value=""3"" onClick = ""pressSubmit(3, 81)""></div><div class = Button4><input type=""button"" id = ""button4"" value=""4"" onClick = ""pressSubmit(4, 81)""></div><div class = Button5><input type=""button"" id = ""button5"" value=""5"" onClick = ""pressSubmit(5, 81)""></div><div class = Button6><input type=""button"" id = ""button6"" value=""6"" onClick = ""pressSubmit(6, 81)""></div><div class = Button7><input type=""button"" id = ""button7"" value=""7"" onClick = ""pressSubmit(7, 81)""></div></div></div></div>","81","2327","34","3","PopTartsStrawberry.bmp","","","","","","","","",""
"","2238","81","2238","-1","pre_task","poldrack-single-stim","37","146632","0.0-1.0-35.0","go_nogo","true","0","","<div class = bigBox><div class = pictureBox><img class='img.displayed' src='/static/experiments/gng_food/images/CherryPie.bmp'></img></div><div class = sliderbox><div class = buttonBox><div class = Button1><input type=""button"" id = ""button1"" value=""1"" onClick = ""pressSubmit(1, 81)""></div><div class = Button2><input type=""button"" id = ""button2"" value=""2"" onClick = ""pressSubmit(2, 81)""></div><div class = Button3><input type=""button"" id = ""button3"" value=""3"" onClick = ""pressSubmit(3, 81)""></div><div class = Button4><input type=""button"" id = ""button4"" value=""4"" onClick = ""pressSubmit(4, 81)""></div><div class = Button5><input type=""button"" id = ""button5"" value=""5"" onClick = ""pressSubmit(5, 81)""></div><div class = Button6><input type=""button"" id = ""button6"" value=""6"" onClick = ""pressSubmit(6, 81)""></div><div class = Button7><input type=""button"" id = ""button7"" value=""7"" onClick = ""pressSubmit(7, 81)""></div></div></div></div>","81","2238","35","1","CherryPie.bmp","","","","","","","","",""
"","1934","81","1934","-1","pre_task","poldrack-single-stim","38","148567","0.0-1.0-36.0","go_nogo","true","0","","<div class = bigBox><div class = pictureBox><img class='img.displayed' src='/static/experiments/gng_food/images/Fritos.bmp'></img></div><div class = sliderbox><div class = buttonBox><div class = Button1><input type=""button"" id = ""button1"" value=""1"" onClick = ""pressSubmit(1, 81)""></div><div class = Button2><input type=""button"" id = ""button2"" value=""2"" onClick = ""pressSubmit(2, 81)""></div><div class = Button3><input type=""button"" id = ""button3"" value=""3"" onClick = ""pressSubmit(3, 81)""></div><div class = Button4><input type=""button"" id = ""button4"" value=""4"" onClick = ""pressSubmit(4, 81)""></div><div class = Button5><input type=""button"" id = ""button5"" value=""5"" onClick = ""pressSubmit(5, 81)""></div><div class = Button6><input type=""button"" id = ""button6"" value=""6"" onClick = ""pressSubmit(6, 81)""></div><div class = Button7><input type=""button"" id = ""button7"" value=""7"" onClick = ""pressSubmit(7, 81)""></div></div></div></div>","81","1934","36","7","Fritos.bmp","","","","","","","","",""
"","1787","81","1787","-1","pre_task","poldrack-single-stim","39","150355","0.0-1.0-37.0","go_nogo","true","0","","<div class = bigBox><div class = pictureBox><img class='img.displayed' src='/static/experiments/gng_food/images/hersheymilk_several.bmp'></img></div><div class = sliderbox><div class = buttonBox><div class = Button1><input type=""button"" id = ""button1"" value=""1"" onClick = ""pressSubmit(1, 81)""></div><div class = Button2><input type=""button"" id = ""button2"" value=""2"" onClick = ""pressSubmit(2, 81)""></div><div class = Button3><input type=""button"" id = ""button3"" value=""3"" onClick = ""pressSubmit(3, 81)""></div><div class = Button4><input type=""button"" id = ""button4"" value=""4"" onClick = ""pressSubmit(4, 81)""></div><div class = Button5><input type=""button"" id = ""button5"" value=""5"" onClick = ""pressSubmit(5, 81)""></div><div class = Button6><input type=""button"" id = ""button6"" value=""6"" onClick = ""pressSubmit(6, 81)""></div><div class = Button7><input type=""button"" id = ""button7"" value=""7"" onClick = ""pressSubmit(7, 81)""></div></div></div></div>","81","1787","37","6","hersheymilk_several.bmp","","","","","","","","",""
"","3104","81","3104","-1","pre_task","poldrack-single-stim","40","153460","0.0-1.0-38.0","go_nogo","true","0","","<div class = bigBox><div class = pictureBox><img class='img.displayed' src='/static/experiments/gng_food/images/Goldfish.bmp'></img></div><div class = sliderbox><div class = buttonBox><div class = Button1><input type=""button"" id = ""button1"" value=""1"" onClick = ""pressSubmit(1, 81)""></div><div class = Button2><input type=""button"" id = ""button2"" value=""2"" onClick = ""pressSubmit(2, 81)""></div><div class = Button3><input type=""button"" id = ""button3"" value=""3"" onClick = ""pressSubmit(3, 81)""></div><div class = Button4><input type=""button"" id = ""button4"" value=""4"" onClick = ""pressSubmit(4, 81)""></div><div class = Button5><input type=""button"" id = ""button5"" value=""5"" onClick = ""pressSubmit(5, 81)""></div><div class = Button6><input type=""button"" id = ""button6"" value=""6"" onClick = ""pressSubmit(6, 81)""></div><div class = Button7><input type=""button"" id = ""button7"" value=""7"" onClick = ""pressSubmit(7, 81)""></div></div></div></div>","81","3104","38","3","Goldfish.bmp","","","","","","","","",""
"","2710","81","2710","-1","pre_task","poldrack-single-stim","41","156171","0.0-1.0-39.0","go_nogo","true","0","","<div class = bigBox><div class = pictureBox><img class='img.displayed' src='/static/experiments/gng_food/images/slimjim.bmp'></img></div><div class = sliderbox><div class = buttonBox><div class = Button1><input type=""button"" id = ""button1"" value=""1"" onClick = ""pressSubmit(1, 81)""></div><div class = Button2><input type=""button"" id = ""button2"" value=""2"" onClick = ""pressSubmit(2, 81)""></div><div class = Button3><input type=""button"" id = ""button3"" value=""3"" onClick = ""pressSubmit(3, 81)""></div><div class = Button4><input type=""button"" id = ""button4"" value=""4"" onClick = ""pressSubmit(4, 81)""></div><div class = Button5><input type=""button"" id = ""button5"" value=""5"" onClick = ""pressSubmit(5, 81)""></div><div class = Button6><input type=""button"" id = ""button6"" value=""6"" onClick = ""pressSubmit(6, 81)""></div><div class = Button7><input type=""button"" id = ""button7"" value=""7"" onClick = ""pressSubmit(7, 81)""></div></div></div></div>","81","2710","39","2","slimjim.bmp","","","","","","","","",""
"","5995","81","5995","-1","pre_task","poldrack-single-stim","42","162168","0.0-1.0-40.0","go_nogo","true","0","","<div class = bigBox><div class = pictureBox><img class='img.displayed' src='/static/experiments/gng_food/images/banana.bmp'></img></div><div class = sliderbox><div class = buttonBox><div class = Button1><input type=""button"" id = ""button1"" value=""1"" onClick = ""pressSubmit(1, 81)""></div><div class = Button2><input type=""button"" id = ""button2"" value=""2"" onClick = ""pressSubmit(2, 81)""></div><div class = Button3><input type=""button"" id = ""button3"" value=""3"" onClick = ""pressSubmit(3, 81)""></div><div class = Button4><input type=""button"" id = ""button4"" value=""4"" onClick = ""pressSubmit(4, 81)""></div><div class = Button5><input type=""button"" id = ""button5"" value=""5"" onClick = ""pressSubmit(5, 81)""></div><div class = Button6><input type=""button"" id = ""button6"" value=""6"" onClick = ""pressSubmit(6, 81)""></div><div class = Button7><input type=""button"" id = ""button7"" value=""7"" onClick = ""pressSubmit(7, 81)""></div></div></div></div>","81","5995","40","6","banana.bmp","","","","","","","","",""
"","2846","81","2846","-1","pre_task","poldrack-single-stim","43","165014","0.0-1.0-41.0","go_nogo","true","0","","<div class = bigBox><div class = pictureBox><img class='img.displayed' src='/static/experiments/gng_food/images/hundredgrand_small.bmp'></img></div><div class = sliderbox><div class = buttonBox><div class = Button1><input type=""button"" id = ""button1"" value=""1"" onClick = ""pressSubmit(1, 81)""></div><div class = Button2><input type=""button"" id = ""button2"" value=""2"" onClick = ""pressSubmit(2, 81)""></div><div class = Button3><input type=""button"" id = ""button3"" value=""3"" onClick = ""pressSubmit(3, 81)""></div><div class = Button4><input type=""button"" id = ""button4"" value=""4"" onClick = ""pressSubmit(4, 81)""></div><div class = Button5><input type=""button"" id = ""button5"" value=""5"" onClick = ""pressSubmit(5, 81)""></div><div class = Button6><input type=""button"" id = ""button6"" value=""6"" onClick = ""pressSubmit(6, 81)""></div><div class = Button7><input type=""button"" id = ""button7"" value=""7"" onClick = ""pressSubmit(7, 81)""></div></div></div></div>","81","2846","41","4","hundredgrand_small.bmp","","","","","","","","",""
"","2024","81","2024","-1","pre_task","poldrack-single-stim","44","167039","0.0-1.0-42.0","go_nogo","true","0","","<div class = bigBox><div class = pictureBox><img class='img.displayed' src='/static/experiments/gng_food/images/Pringles.bmp'></img></div><div class = sliderbox><div class = buttonBox><div class = Button1><input type=""button"" id = ""button1"" value=""1"" onClick = ""pressSubmit(1, 81)""></div><div class = Button2><input type=""button"" id = ""button2"" value=""2"" onClick = ""pressSubmit(2, 81)""></div><div class = Button3><input type=""button"" id = ""button3"" value=""3"" onClick = ""pressSubmit(3, 81)""></div><div class = Button4><input type=""button"" id = ""button4"" value=""4"" onClick = ""pressSubmit(4, 81)""></div><div class = Button5><input type=""button"" id = ""button5"" value=""5"" onClick = ""pressSubmit(5, 81)""></div><div class = Button6><input type=""button"" id = ""button6"" value=""6"" onClick = ""pressSubmit(6, 81)""></div><div class = Button7><input type=""button"" id = ""button7"" value=""7"" onClick = ""pressSubmit(7, 81)""></div></div></div></div>","81","2024","42","6","Pringles.bmp","","","","","","","","",""
"","1765","81","1765","-1","pre_task","poldrack-single-stim","45","168806","0.0-1.0-43.0","go_nogo","true","0","","<div class = bigBox><div class = pictureBox><img class='img.displayed' src='/static/experiments/gng_food/images/PopTartsCinnamon.bmp'></img></div><div class = sliderbox><div class = buttonBox><div class = Button1><input type=""button"" id = ""button1"" value=""1"" onClick = ""pressSubmit(1, 81)""></div><div class = Button2><input type=""button"" id = ""button2"" value=""2"" onClick = ""pressSubmit(2, 81)""></div><div class = Button3><input type=""button"" id = ""button3"" value=""3"" onClick = ""pressSubmit(3, 81)""></div><div class = Button4><input type=""button"" id = ""button4"" value=""4"" onClick = ""pressSubmit(4, 81)""></div><div class = Button5><input type=""button"" id = ""button5"" value=""5"" onClick = ""pressSubmit(5, 81)""></div><div class = Button6><input type=""button"" id = ""button6"" value=""6"" onClick = ""pressSubmit(6, 81)""></div><div class = Button7><input type=""button"" id = ""button7"" value=""7"" onClick = ""pressSubmit(7, 81)""></div></div></div></div>","81","1765","43","3","PopTartsCinnamon.bmp","","","","","","","","",""
"","3464","81","3464","-1","pre_task","poldrack-single-stim","46","172271","0.0-1.0-44.0","go_nogo","true","0","","<div class = bigBox><div class = pictureBox><img class='img.displayed' src='/static/experiments/gng_food/images/Oreos.bmp'></img></div><div class = sliderbox><div class = buttonBox><div class = Button1><input type=""button"" id = ""button1"" value=""1"" onClick = ""pressSubmit(1, 81)""></div><div class = Button2><input type=""button"" id = ""button2"" value=""2"" onClick = ""pressSubmit(2, 81)""></div><div class = Button3><input type=""button"" id = ""button3"" value=""3"" onClick = ""pressSubmit(3, 81)""></div><div class = Button4><input type=""button"" id = ""button4"" value=""4"" onClick = ""pressSubmit(4, 81)""></div><div class = Button5><input type=""button"" id = ""button5"" value=""5"" onClick = ""pressSubmit(5, 81)""></div><div class = Button6><input type=""button"" id = ""button6"" value=""6"" onClick = ""pressSubmit(6, 81)""></div><div class = Button7><input type=""button"" id = ""button7"" value=""7"" onClick = ""pressSubmit(7, 81)""></div></div></div></div>","81","3464","44","6","Oreos.bmp","","","","","","","","",""
"","1259","81","1259","-1","pre_task","poldrack-single-stim","47","173530","0.0-1.0-45.0","go_nogo","true","0","","<div class = bigBox><div class = pictureBox><img class='img.displayed' src='/static/experiments/gng_food/images/reddelicious.bmp'></img></div><div class = sliderbox><div class = buttonBox><div class = Button1><input type=""button"" id = ""button1"" value=""1"" onClick = ""pressSubmit(1, 81)""></div><div class = Button2><input type=""button"" id = ""button2"" value=""2"" onClick = ""pressSubmit(2, 81)""></div><div class = Button3><input type=""button"" id = ""button3"" value=""3"" onClick = ""pressSubmit(3, 81)""></div><div class = Button4><input type=""button"" id = ""button4"" value=""4"" onClick = ""pressSubmit(4, 81)""></div><div class = Button5><input type=""button"" id = ""button5"" value=""5"" onClick = ""pressSubmit(5, 81)""></div><div class = Button6><input type=""button"" id = ""button6"" value=""6"" onClick = ""pressSubmit(6, 81)""></div><div class = Button7><input type=""button"" id = ""button7"" value=""7"" onClick = ""pressSubmit(7, 81)""></div></div></div></div>","81","1259","45","5","reddelicious.bmp","","","","","","","","",""
"","2283","81","2283","-1","pre_task","poldrack-single-stim","48","175814","0.0-1.0-46.0","go_nogo","true","0","","<div class = bigBox><div class = pictureBox><img class='img.displayed' src='/static/experiments/gng_food/images/hersheykisses.bmp'></img></div><div class = sliderbox><div class = buttonBox><div class = Button1><input type=""button"" id = ""button1"" value=""1"" onClick = ""pressSubmit(1, 81)""></div><div class = Button2><input type=""button"" id = ""button2"" value=""2"" onClick = ""pressSubmit(2, 81)""></div><div class = Button3><input type=""button"" id = ""button3"" value=""3"" onClick = ""pressSubmit(3, 81)""></div><div class = Button4><input type=""button"" id = ""button4"" value=""4"" onClick = ""pressSubmit(4, 81)""></div><div class = Button5><input type=""button"" id = ""button5"" value=""5"" onClick = ""pressSubmit(5, 81)""></div><div class = Button6><input type=""button"" id = ""button6"" value=""6"" onClick = ""pressSubmit(6, 81)""></div><div class = Button7><input type=""button"" id = ""button7"" value=""7"" onClick = ""pressSubmit(7, 81)""></div></div></div></div>","81","2283","46","6","hersheykisses.bmp","","","","","","","","",""
"","1394","81","1394","-1","pre_task","poldrack-single-stim","49","177210","0.0-1.0-47.0","go_nogo","true","0","","<div class = bigBox><div class = pictureBox><img class='img.displayed' src='/static/experiments/gng_food/images/snickers.bmp'></img></div><div class = sliderbox><div class = buttonBox><div class = Button1><input type=""button"" id = ""button1"" value=""1"" onClick = ""pressSubmit(1, 81)""></div><div class = Button2><input type=""button"" id = ""button2"" value=""2"" onClick = ""pressSubmit(2, 81)""></div><div class = Button3><input type=""button"" id = ""button3"" value=""3"" onClick = ""pressSubmit(3, 81)""></div><div class = Button4><input type=""button"" id = ""button4"" value=""4"" onClick = ""pressSubmit(4, 81)""></div><div class = Button5><input type=""button"" id = ""button5"" value=""5"" onClick = ""pressSubmit(5, 81)""></div><div class = Button6><input type=""button"" id = ""button6"" value=""6"" onClick = ""pressSubmit(6, 81)""></div><div class = Button7><input type=""button"" id = ""button7"" value=""7"" onClick = ""pressSubmit(7, 81)""></div></div></div></div>","81","1394","47","6","snickers.bmp","","","","","","","","",""
"","1191","81","1191","-1","pre_task","poldrack-single-stim","50","178402","0.0-1.0-48.0","go_nogo","true","0","","<div class = bigBox><div class = pictureBox><img class='img.displayed' src='/static/experiments/gng_food/images/FrootLoops.bmp'></img></div><div class = sliderbox><div class = buttonBox><div class = Button1><input type=""button"" id = ""button1"" value=""1"" onClick = ""pressSubmit(1, 81)""></div><div class = Button2><input type=""button"" id = ""button2"" value=""2"" onClick = ""pressSubmit(2, 81)""></div><div class = Button3><input type=""button"" id = ""button3"" value=""3"" onClick = ""pressSubmit(3, 81)""></div><div class = Button4><input type=""button"" id = ""button4"" value=""4"" onClick = ""pressSubmit(4, 81)""></div><div class = Button5><input type=""button"" id = ""button5"" value=""5"" onClick = ""pressSubmit(5, 81)""></div><div class = Button6><input type=""button"" id = ""button6"" value=""6"" onClick = ""pressSubmit(6, 81)""></div><div class = Button7><input type=""button"" id = ""button7"" value=""7"" onClick = ""pressSubmit(7, 81)""></div></div></div></div>","81","1191","48","6","FrootLoops.bmp","","","","","","","","",""
"","1675","81","1675","-1","pre_task","poldrack-single-stim","51","180078","0.0-1.0-49.0","go_nogo","true","0","","<div class = bigBox><div class = pictureBox><img class='img.displayed' src='/static/experiments/gng_food/images/orange.bmp'></img></div><div class = sliderbox><div class = buttonBox><div class = Button1><input type=""button"" id = ""button1"" value=""1"" onClick = ""pressSubmit(1, 81)""></div><div class = Button2><input type=""button"" id = ""button2"" value=""2"" onClick = ""pressSubmit(2, 81)""></div><div class = Button3><input type=""button"" id = ""button3"" value=""3"" onClick = ""pressSubmit(3, 81)""></div><div class = Button4><input type=""button"" id = ""button4"" value=""4"" onClick = ""pressSubmit(4, 81)""></div><div class = Button5><input type=""button"" id = ""button5"" value=""5"" onClick = ""pressSubmit(5, 81)""></div><div class = Button6><input type=""button"" id = ""button6"" value=""6"" onClick = ""pressSubmit(6, 81)""></div><div class = Button7><input type=""button"" id = ""button7"" value=""7"" onClick = ""pressSubmit(7, 81)""></div></div></div></div>","81","1675","49","6","orange.bmp","","","","","","","","",""
"","3566","81","3566","-1","pre_task","poldrack-single-stim","52","183644","0.0-1.0-50.0","go_nogo","true","0","","<div class = bigBox><div class = pictureBox><img class='img.displayed' src='/static/experiments/gng_food/images/Cheetos.bmp'></img></div><div class = sliderbox><div class = buttonBox><div class = Button1><input type=""button"" id = ""button1"" value=""1"" onClick = ""pressSubmit(1, 81)""></div><div class = Button2><input type=""button"" id = ""button2"" value=""2"" onClick = ""pressSubmit(2, 81)""></div><div class = Button3><input type=""button"" id = ""button3"" value=""3"" onClick = ""pressSubmit(3, 81)""></div><div class = Button4><input type=""button"" id = ""button4"" value=""4"" onClick = ""pressSubmit(4, 81)""></div><div class = Button5><input type=""button"" id = ""button5"" value=""5"" onClick = ""pressSubmit(5, 81)""></div><div class = Button6><input type=""button"" id = ""button6"" value=""6"" onClick = ""pressSubmit(6, 81)""></div><div class = Button7><input type=""button"" id = ""button7"" value=""7"" onClick = ""pressSubmit(7, 81)""></div></div></div></div>","81","3566","50","5","Cheetos.bmp","","","","","","","","",""
"","1900","81","1900","-1","pre_task","poldrack-single-stim","53","185546","0.0-1.0-51.0","go_nogo","true","0","","<div class = bigBox><div class = pictureBox><img class='img.displayed' src='/static/experiments/gng_food/images/starburst.bmp'></img></div><div class = sliderbox><div class = buttonBox><div class = Button1><input type=""button"" id = ""button1"" value=""1"" onClick = ""pressSubmit(1, 81)""></div><div class = Button2><input type=""button"" id = ""button2"" value=""2"" onClick = ""pressSubmit(2, 81)""></div><div class = Button3><input type=""button"" id = ""button3"" value=""3"" onClick = ""pressSubmit(3, 81)""></div><div class = Button4><input type=""button"" id = ""button4"" value=""4"" onClick = ""pressSubmit(4, 81)""></div><div class = Button5><input type=""button"" id = ""button5"" value=""5"" onClick = ""pressSubmit(5, 81)""></div><div class = Button6><input type=""button"" id = ""button6"" value=""6"" onClick = ""pressSubmit(6, 81)""></div><div class = Button7><input type=""button"" id = ""button7"" value=""7"" onClick = ""pressSubmit(7, 81)""></div></div></div></div>","81","1900","51","5","starburst.bmp","","","","","","","","",""
"","1191","81","1191","-1","pre_task","poldrack-single-stim","54","186738","0.0-1.0-52.0","go_nogo","true","0","","<div class = bigBox><div class = pictureBox><img class='img.displayed' src='/static/experiments/gng_food/images/Cupcakes.bmp'></img></div><div class = sliderbox><div class = buttonBox><div class = Button1><input type=""button"" id = ""button1"" value=""1"" onClick = ""pressSubmit(1, 81)""></div><div class = Button2><input type=""button"" id = ""button2"" value=""2"" onClick = ""pressSubmit(2, 81)""></div><div class = Button3><input type=""button"" id = ""button3"" value=""3"" onClick = ""pressSubmit(3, 81)""></div><div class = Button4><input type=""button"" id = ""button4"" value=""4"" onClick = ""pressSubmit(4, 81)""></div><div class = Button5><input type=""button"" id = ""button5"" value=""5"" onClick = ""pressSubmit(5, 81)""></div><div class = Button6><input type=""button"" id = ""button6"" value=""6"" onClick = ""pressSubmit(6, 81)""></div><div class = Button7><input type=""button"" id = ""button7"" value=""7"" onClick = ""pressSubmit(7, 81)""></div></div></div></div>","81","1191","52","6","Cupcakes.bmp","","","","","","","","",""
"","1687","81","1687","-1","pre_task","poldrack-single-stim","55","188426","0.0-1.0-53.0","go_nogo","true","0","","<div class = bigBox><div class = pictureBox><img class='img.displayed' src='/static/experiments/gng_food/images/pringlescheezums.bmp'></img></div><div class = sliderbox><div class = buttonBox><div class = Button1><input type=""button"" id = ""button1"" value=""1"" onClick = ""pressSubmit(1, 81)""></div><div class = Button2><input type=""button"" id = ""button2"" value=""2"" onClick = ""pressSubmit(2, 81)""></div><div class = Button3><input type=""button"" id = ""button3"" value=""3"" onClick = ""pressSubmit(3, 81)""></div><div class = Button4><input type=""button"" id = ""button4"" value=""4"" onClick = ""pressSubmit(4, 81)""></div><div class = Button5><input type=""button"" id = ""button5"" value=""5"" onClick = ""pressSubmit(5, 81)""></div><div class = Button6><input type=""button"" id = ""button6"" value=""6"" onClick = ""pressSubmit(6, 81)""></div><div class = Button7><input type=""button"" id = ""button7"" value=""7"" onClick = ""pressSubmit(7, 81)""></div></div></div></div>","81","1687","53","5","pringlescheezums.bmp","","","","","","","","",""
"","1754","81","1754","-1","pre_task","poldrack-single-stim","56","190180","0.0-1.0-54.0","go_nogo","true","0","","<div class = bigBox><div class = pictureBox><img class='img.displayed' src='/static/experiments/gng_food/images/redvines_small.bmp'></img></div><div class = sliderbox><div class = buttonBox><div class = Button1><input type=""button"" id = ""button1"" value=""1"" onClick = ""pressSubmit(1, 81)""></div><div class = Button2><input type=""button"" id = ""button2"" value=""2"" onClick = ""pressSubmit(2, 81)""></div><div class = Button3><input type=""button"" id = ""button3"" value=""3"" onClick = ""pressSubmit(3, 81)""></div><div class = Button4><input type=""button"" id = ""button4"" value=""4"" onClick = ""pressSubmit(4, 81)""></div><div class = Button5><input type=""button"" id = ""button5"" value=""5"" onClick = ""pressSubmit(5, 81)""></div><div class = Button6><input type=""button"" id = ""button6"" value=""6"" onClick = ""pressSubmit(6, 81)""></div><div class = Button7><input type=""button"" id = ""button7"" value=""7"" onClick = ""pressSubmit(7, 81)""></div></div></div></div>","81","1754","54","3","redvines_small.bmp","","","","","","","","",""
"","2080","81","2080","-1","pre_task","poldrack-single-stim","57","192262","0.0-1.0-55.0","go_nogo","true","0","","<div class = bigBox><div class = pictureBox><img class='img.displayed' src='/static/experiments/gng_food/images/granolabar.bmp'></img></div><div class = sliderbox><div class = buttonBox><div class = Button1><input type=""button"" id = ""button1"" value=""1"" onClick = ""pressSubmit(1, 81)""></div><div class = Button2><input type=""button"" id = ""button2"" value=""2"" onClick = ""pressSubmit(2, 81)""></div><div class = Button3><input type=""button"" id = ""button3"" value=""3"" onClick = ""pressSubmit(3, 81)""></div><div class = Button4><input type=""button"" id = ""button4"" value=""4"" onClick = ""pressSubmit(4, 81)""></div><div class = Button5><input type=""button"" id = ""button5"" value=""5"" onClick = ""pressSubmit(5, 81)""></div><div class = Button6><input type=""button"" id = ""button6"" value=""6"" onClick = ""pressSubmit(6, 81)""></div><div class = Button7><input type=""button"" id = ""button7"" value=""7"" onClick = ""pressSubmit(7, 81)""></div></div></div></div>","81","2080","55","6","granolabar.bmp","","","","","","","","",""
"","2857","81","2857","-1","pre_task","poldrack-single-stim","58","195119","0.0-1.0-56.0","go_nogo","true","0","","<div class = bigBox><div class = pictureBox><img class='img.displayed' src='/static/experiments/gng_food/images/whitegrapes.bmp'></img></div><div class = sliderbox><div class = buttonBox><div class = Button1><input type=""button"" id = ""button1"" value=""1"" onClick = ""pressSubmit(1, 81)""></div><div class = Button2><input type=""button"" id = ""button2"" value=""2"" onClick = ""pressSubmit(2, 81)""></div><div class = Button3><input type=""button"" id = ""button3"" value=""3"" onClick = ""pressSubmit(3, 81)""></div><div class = Button4><input type=""button"" id = ""button4"" value=""4"" onClick = ""pressSubmit(4, 81)""></div><div class = Button5><input type=""button"" id = ""button5"" value=""5"" onClick = ""pressSubmit(5, 81)""></div><div class = Button6><input type=""button"" id = ""button6"" value=""6"" onClick = ""pressSubmit(6, 81)""></div><div class = Button7><input type=""button"" id = ""button7"" value=""7"" onClick = ""pressSubmit(7, 81)""></div></div></div></div>","81","2857","56","6","whitegrapes.bmp","","","","","","","","",""
"","2699","81","2699","-1","pre_task","poldrack-single-stim","59","197819","0.0-1.0-57.0","go_nogo","true","0","","<div class = bigBox><div class = pictureBox><img class='img.displayed' src='/static/experiments/gng_food/images/PringlesRed.bmp'></img></div><div class = sliderbox><div class = buttonBox><div class = Button1><input type=""button"" id = ""button1"" value=""1"" onClick = ""pressSubmit(1, 81)""></div><div class = Button2><input type=""button"" id = ""button2"" value=""2"" onClick = ""pressSubmit(2, 81)""></div><div class = Button3><input type=""button"" id = ""button3"" value=""3"" onClick = ""pressSubmit(3, 81)""></div><div class = Button4><input type=""button"" id = ""button4"" value=""4"" onClick = ""pressSubmit(4, 81)""></div><div class = Button5><input type=""button"" id = ""button5"" value=""5"" onClick = ""pressSubmit(5, 81)""></div><div class = Button6><input type=""button"" id = ""button6"" value=""6"" onClick = ""pressSubmit(6, 81)""></div><div class = Button7><input type=""button"" id = ""button7"" value=""7"" onClick = ""pressSubmit(7, 81)""></div></div></div></div>","81","2699","57","5","PringlesRed.bmp","","","","","","","","",""
"","3003","81","3003","-1","pre_task","poldrack-single-stim","60","200824","0.0-1.0-58.0","go_nogo","true","0","","<div class = bigBox><div class = pictureBox><img class='img.displayed' src='/static/experiments/gng_food/images/lollipopred.bmp'></img></div><div class = sliderbox><div class = buttonBox><div class = Button1><input type=""button"" id = ""button1"" value=""1"" onClick = ""pressSubmit(1, 81)""></div><div class = Button2><input type=""button"" id = ""button2"" value=""2"" onClick = ""pressSubmit(2, 81)""></div><div class = Button3><input type=""button"" id = ""button3"" value=""3"" onClick = ""pressSubmit(3, 81)""></div><div class = Button4><input type=""button"" id = ""button4"" value=""4"" onClick = ""pressSubmit(4, 81)""></div><div class = Button5><input type=""button"" id = ""button5"" value=""5"" onClick = ""pressSubmit(5, 81)""></div><div class = Button6><input type=""button"" id = ""button6"" value=""6"" onClick = ""pressSubmit(6, 81)""></div><div class = Button7><input type=""button"" id = ""button7"" value=""7"" onClick = ""pressSubmit(7, 81)""></div></div></div></div>","81","3003","58","5","lollipopred.bmp","","","","","","","","",""
"","2586","81","2586","-1","pre_task","poldrack-single-stim","61","203411","0.0-1.0-59.0","go_nogo","true","0","","<div class = bigBox><div class = pictureBox><img class='img.displayed' src='/static/experiments/gng_food/images/almondjoy.bmp'></img></div><div class = sliderbox><div class = buttonBox><div class = Button1><input type=""button"" id = ""button1"" value=""1"" onClick = ""pressSubmit(1, 81)""></div><div class = Button2><input type=""button"" id = ""button2"" value=""2"" onClick = ""pressSubmit(2, 81)""></div><div class = Button3><input type=""button"" id = ""button3"" value=""3"" onClick = ""pressSubmit(3, 81)""></div><div class = Button4><input type=""button"" id = ""button4"" value=""4"" onClick = ""pressSubmit(4, 81)""></div><div class = Button5><input type=""button"" id = ""button5"" value=""5"" onClick = ""pressSubmit(5, 81)""></div><div class = Button6><input type=""button"" id = ""button6"" value=""6"" onClick = ""pressSubmit(6, 81)""></div><div class = Button7><input type=""button"" id = ""button7"" value=""7"" onClick = ""pressSubmit(7, 81)""></div></div></div></div>","81","2586","59","1","almondjoy.bmp","","","","","","","","",""
"","1653","81","1653","-1","pre_task","poldrack-single-stim","62","205064","0.0-1.0-60.0","go_nogo","true","0","","<div class = bigBox><div class = pictureBox><img class='img.displayed' src='/static/experiments/gng_food/images/keeblerrainbow.bmp'></img></div><div class = sliderbox><div class = buttonBox><div class = Button1><input type=""button"" id = ""button1"" value=""1"" onClick = ""pressSubmit(1, 81)""></div><div class = Button2><input type=""button"" id = ""button2"" value=""2"" onClick = ""pressSubmit(2, 81)""></div><div class = Button3><input type=""button"" id = ""button3"" value=""3"" onClick = ""pressSubmit(3, 81)""></div><div class = Button4><input type=""button"" id = ""button4"" value=""4"" onClick = ""pressSubmit(4, 81)""></div><div class = Button5><input type=""button"" id = ""button5"" value=""5"" onClick = ""pressSubmit(5, 81)""></div><div class = Button6><input type=""button"" id = ""button6"" value=""6"" onClick = ""pressSubmit(6, 81)""></div><div class = Button7><input type=""button"" id = ""button7"" value=""7"" onClick = ""pressSubmit(7, 81)""></div></div></div></div>","81","1653","60","6","keeblerrainbow.bmp","","","","","","","","",""
"","2755","81","2755","-1","pre_task","poldrack-single-stim","63","207821","0.0-1.0-61.0","go_nogo","true","0","","<div class = bigBox><div class = pictureBox><img class='img.displayed' src='/static/experiments/gng_food/images/cookiencream.bmp'></img></div><div class = sliderbox><div class = buttonBox><div class = Button1><input type=""button"" id = ""button1"" value=""1"" onClick = ""pressSubmit(1, 81)""></div><div class = Button2><input type=""button"" id = ""button2"" value=""2"" onClick = ""pressSubmit(2, 81)""></div><div class = Button3><input type=""button"" id = ""button3"" value=""3"" onClick = ""pressSubmit(3, 81)""></div><div class = Button4><input type=""button"" id = ""button4"" value=""4"" onClick = ""pressSubmit(4, 81)""></div><div class = Button5><input type=""button"" id = ""button5"" value=""5"" onClick = ""pressSubmit(5, 81)""></div><div class = Button6><input type=""button"" id = ""button6"" value=""6"" onClick = ""pressSubmit(6, 81)""></div><div class = Button7><input type=""button"" id = ""button7"" value=""7"" onClick = ""pressSubmit(7, 81)""></div></div></div></div>","81","2755","61","6","cookiencream.bmp","","","","","","","","",""
"","4183","81","4183","-1","pre_task","poldrack-single-stim","64","212006","0.0-1.0-62.0","go_nogo","true","0","","<div class = bigBox><div class = pictureBox><img class='img.displayed' src='/static/experiments/gng_food/images/Funyuns_small.bmp'></img></div><div class = sliderbox><div class = buttonBox><div class = Button1><input type=""button"" id = ""button1"" value=""1"" onClick = ""pressSubmit(1, 81)""></div><div class = Button2><input type=""button"" id = ""button2"" value=""2"" onClick = ""pressSubmit(2, 81)""></div><div class = Button3><input type=""button"" id = ""button3"" value=""3"" onClick = ""pressSubmit(3, 81)""></div><div class = Button4><input type=""button"" id = ""button4"" value=""4"" onClick = ""pressSubmit(4, 81)""></div><div class = Button5><input type=""button"" id = ""button5"" value=""5"" onClick = ""pressSubmit(5, 81)""></div><div class = Button6><input type=""button"" id = ""button6"" value=""6"" onClick = ""pressSubmit(6, 81)""></div><div class = Button7><input type=""button"" id = ""button7"" value=""7"" onClick = ""pressSubmit(7, 81)""></div></div></div></div>","81","4183","62","4","Funyuns_small.bmp","","","","","","","","",""
"","2350","81","2350","-1","pre_task","poldrack-single-stim","65","214357","0.0-1.0-63.0","go_nogo","true","0","","<div class = bigBox><div class = pictureBox><img class='img.displayed' src='/static/experiments/gng_food/images/cherryicecream.bmp'></img></div><div class = sliderbox><div class = buttonBox><div class = Button1><input type=""button"" id = ""button1"" value=""1"" onClick = ""pressSubmit(1, 81)""></div><div class = Button2><input type=""button"" id = ""button2"" value=""2"" onClick = ""pressSubmit(2, 81)""></div><div class = Button3><input type=""button"" id = ""button3"" value=""3"" onClick = ""pressSubmit(3, 81)""></div><div class = Button4><input type=""button"" id = ""button4"" value=""4"" onClick = ""pressSubmit(4, 81)""></div><div class = Button5><input type=""button"" id = ""button5"" value=""5"" onClick = ""pressSubmit(5, 81)""></div><div class = Button6><input type=""button"" id = ""button6"" value=""6"" onClick = ""pressSubmit(6, 81)""></div><div class = Button7><input type=""button"" id = ""button7"" value=""7"" onClick = ""pressSubmit(7, 81)""></div></div></div></div>","81","2350","63","5","cherryicecream.bmp","","","","","","","","",""
"","1923","81","1923","-1","pre_task","poldrack-single-stim","66","216281","0.0-1.0-64.0","go_nogo","true","0","","<div class = bigBox><div class = pictureBox><img class='img.displayed' src='/static/experiments/gng_food/images/PayDay.bmp'></img></div><div class = sliderbox><div class = buttonBox><div class = Button1><input type=""button"" id = ""button1"" value=""1"" onClick = ""pressSubmit(1, 81)""></div><div class = Button2><input type=""button"" id = ""button2"" value=""2"" onClick = ""pressSubmit(2, 81)""></div><div class = Button3><input type=""button"" id = ""button3"" value=""3"" onClick = ""pressSubmit(3, 81)""></div><div class = Button4><input type=""button"" id = ""button4"" value=""4"" onClick = ""pressSubmit(4, 81)""></div><div class = Button5><input type=""button"" id = ""button5"" value=""5"" onClick = ""pressSubmit(5, 81)""></div><div class = Button6><input type=""button"" id = ""button6"" value=""6"" onClick = ""pressSubmit(6, 81)""></div><div class = Button7><input type=""button"" id = ""button7"" value=""7"" onClick = ""pressSubmit(7, 81)""></div></div></div></div>","81","1923","64","2","PayDay.bmp","","","","","","","","",""
"","4521","81","4521","-1","pre_task","poldrack-single-stim","67","220804","0.0-1.0-65.0","go_nogo","true","0","","<div class = bigBox><div class = pictureBox><img class='img.displayed' src='/static/experiments/gng_food/images/wwmuffin.bmp'></img></div><div class = sliderbox><div class = buttonBox><div class = Button1><input type=""button"" id = ""button1"" value=""1"" onClick = ""pressSubmit(1, 81)""></div><div class = Button2><input type=""button"" id = ""button2"" value=""2"" onClick = ""pressSubmit(2, 81)""></div><div class = Button3><input type=""button"" id = ""button3"" value=""3"" onClick = ""pressSubmit(3, 81)""></div><div class = Button4><input type=""button"" id = ""button4"" value=""4"" onClick = ""pressSubmit(4, 81)""></div><div class = Button5><input type=""button"" id = ""button5"" value=""5"" onClick = ""pressSubmit(5, 81)""></div><div class = Button6><input type=""button"" id = ""button6"" value=""6"" onClick = ""pressSubmit(6, 81)""></div><div class = Button7><input type=""button"" id = ""button7"" value=""7"" onClick = ""pressSubmit(7, 81)""></div></div></div></div>","81","4521","65","6","wwmuffin.bmp","","","","","","","","",""
"","1405","81","1405","-1","pre_task","poldrack-single-stim","68","222210","0.0-1.0-66.0","go_nogo","true","0","","<div class = bigBox><div class = pictureBox><img class='img.displayed' src='/static/experiments/gng_food/images/Reeses.bmp'></img></div><div class = sliderbox><div class = buttonBox><div class = Button1><input type=""button"" id = ""button1"" value=""1"" onClick = ""pressSubmit(1, 81)""></div><div class = Button2><input type=""button"" id = ""button2"" value=""2"" onClick = ""pressSubmit(2, 81)""></div><div class = Button3><input type=""button"" id = ""button3"" value=""3"" onClick = ""pressSubmit(3, 81)""></div><div class = Button4><input type=""button"" id = ""button4"" value=""4"" onClick = ""pressSubmit(4, 81)""></div><div class = Button5><input type=""button"" id = ""button5"" value=""5"" onClick = ""pressSubmit(5, 81)""></div><div class = Button6><input type=""button"" id = ""button6"" value=""6"" onClick = ""pressSubmit(6, 81)""></div><div class = Button7><input type=""button"" id = ""button7"" value=""7"" onClick = ""pressSubmit(7, 81)""></div></div></div></div>","81","1405","66","7","Reeses.bmp","","","","","","","","",""
"","1507","81","1507","-1","pre_task","poldrack-single-stim","69","223717","0.0-1.0-67.0","go_nogo","true","0","","<div class = bigBox><div class = pictureBox><img class='img.displayed' src='/static/experiments/gng_food/images/FrostedFlakes.bmp'></img></div><div class = sliderbox><div class = buttonBox><div class = Button1><input type=""button"" id = ""button1"" value=""1"" onClick = ""pressSubmit(1, 81)""></div><div class = Button2><input type=""button"" id = ""button2"" value=""2"" onClick = ""pressSubmit(2, 81)""></div><div class = Button3><input type=""button"" id = ""button3"" value=""3"" onClick = ""pressSubmit(3, 81)""></div><div class = Button4><input type=""button"" id = ""button4"" value=""4"" onClick = ""pressSubmit(4, 81)""></div><div class = Button5><input type=""button"" id = ""button5"" value=""5"" onClick = ""pressSubmit(5, 81)""></div><div class = Button6><input type=""button"" id = ""button6"" value=""6"" onClick = ""pressSubmit(6, 81)""></div><div class = Button7><input type=""button"" id = ""button7"" value=""7"" onClick = ""pressSubmit(7, 81)""></div></div></div></div>","81","1507","67","6","FrostedFlakes.bmp","","","","","","","","",""
"","2485","81","2485","-1","pre_task","poldrack-single-stim","70","226204","0.0-1.0-68.0","go_nogo","true","0","","<div class = bigBox><div class = pictureBox><img class='img.displayed' src='/static/experiments/gng_food/images/ffraspsorbet.bmp'></img></div><div class = sliderbox><div class = buttonBox><div class = Button1><input type=""button"" id = ""button1"" value=""1"" onClick = ""pressSubmit(1, 81)""></div><div class = Button2><input type=""button"" id = ""button2"" value=""2"" onClick = ""pressSubmit(2, 81)""></div><div class = Button3><input type=""button"" id = ""button3"" value=""3"" onClick = ""pressSubmit(3, 81)""></div><div class = Button4><input type=""button"" id = ""button4"" value=""4"" onClick = ""pressSubmit(4, 81)""></div><div class = Button5><input type=""button"" id = ""button5"" value=""5"" onClick = ""pressSubmit(5, 81)""></div><div class = Button6><input type=""button"" id = ""button6"" value=""6"" onClick = ""pressSubmit(6, 81)""></div><div class = Button7><input type=""button"" id = ""button7"" value=""7"" onClick = ""pressSubmit(7, 81)""></div></div></div></div>","81","2485","68","3","ffraspsorbet.bmp","","","","","","","","",""
"","3172","81","3172","-1","pre_task","poldrack-single-stim","71","229376","0.0-1.0-69.0","go_nogo","true","0","","<div class = bigBox><div class = pictureBox><img class='img.displayed' src='/static/experiments/gng_food/images/sbdietbar.bmp'></img></div><div class = sliderbox><div class = buttonBox><div class = Button1><input type=""button"" id = ""button1"" value=""1"" onClick = ""pressSubmit(1, 81)""></div><div class = Button2><input type=""button"" id = ""button2"" value=""2"" onClick = ""pressSubmit(2, 81)""></div><div class = Button3><input type=""button"" id = ""button3"" value=""3"" onClick = ""pressSubmit(3, 81)""></div><div class = Button4><input type=""button"" id = ""button4"" value=""4"" onClick = ""pressSubmit(4, 81)""></div><div class = Button5><input type=""button"" id = ""button5"" value=""5"" onClick = ""pressSubmit(5, 81)""></div><div class = Button6><input type=""button"" id = ""button6"" value=""6"" onClick = ""pressSubmit(6, 81)""></div><div class = Button7><input type=""button"" id = ""button7"" value=""7"" onClick = ""pressSubmit(7, 81)""></div></div></div></div>","81","3172","69","2","sbdietbar.bmp","","","","","","","","",""
"","2552","81","2552","-1","pre_task","poldrack-single-stim","72","231930","0.0-1.0-70.0","go_nogo","true","0","","<div class = bigBox><div class = pictureBox><img class='img.displayed' src='/static/experiments/gng_food/images/Ghiradelli_milk.bmp'></img></div><div class = sliderbox><div class = buttonBox><div class = Button1><input type=""button"" id = ""button1"" value=""1"" onClick = ""pressSubmit(1, 81)""></div><div class = Button2><input type=""button"" id = ""button2"" value=""2"" onClick = ""pressSubmit(2, 81)""></div><div class = Button3><input type=""button"" id = ""button3"" value=""3"" onClick = ""pressSubmit(3, 81)""></div><div class = Button4><input type=""button"" id = ""button4"" value=""4"" onClick = ""pressSubmit(4, 81)""></div><div class = Button5><input type=""button"" id = ""button5"" value=""5"" onClick = ""pressSubmit(5, 81)""></div><div class = Button6><input type=""button"" id = ""button6"" value=""6"" onClick = ""pressSubmit(6, 81)""></div><div class = Button7><input type=""button"" id = ""button7"" value=""7"" onClick = ""pressSubmit(7, 81)""></div></div></div></div>","81","2552","70","6","Ghiradelli_milk.bmp","","","","","","","","",""
"","2261","81","2261","-1","pre_task","poldrack-single-stim","73","234191","0.0-1.0-71.0","go_nogo","true","0","","<div class = bigBox><div class = pictureBox><img class='img.displayed' src='/static/experiments/gng_food/images/FamousAmos_small.bmp'></img></div><div class = sliderbox><div class = buttonBox><div class = Button1><input type=""button"" id = ""button1"" value=""1"" onClick = ""pressSubmit(1, 81)""></div><div class = Button2><input type=""button"" id = ""button2"" value=""2"" onClick = ""pressSubmit(2, 81)""></div><div class = Button3><input type=""button"" id = ""button3"" value=""3"" onClick = ""pressSubmit(3, 81)""></div><div class = Button4><input type=""button"" id = ""button4"" value=""4"" onClick = ""pressSubmit(4, 81)""></div><div class = Button5><input type=""button"" id = ""button5"" value=""5"" onClick = ""pressSubmit(5, 81)""></div><div class = Button6><input type=""button"" id = ""button6"" value=""6"" onClick = ""pressSubmit(6, 81)""></div><div class = Button7><input type=""button"" id = ""button7"" value=""7"" onClick = ""pressSubmit(7, 81)""></div></div></div></div>","81","2261","71","5","FamousAmos_small.bmp","","","","","","","","",""
"","3666","81","3666","-1","pre_task","poldrack-single-stim","74","237859","0.0-1.0-72.0","go_nogo","true","0","","<div class = bigBox><div class = pictureBox><img class='img.displayed' src='/static/experiments/gng_food/images/milkduds.bmp'></img></div><div class = sliderbox><div class = buttonBox><div class = Button1><input type=""button"" id = ""button1"" value=""1"" onClick = ""pressSubmit(1, 81)""></div><div class = Button2><input type=""button"" id = ""button2"" value=""2"" onClick = ""pressSubmit(2, 81)""></div><div class = Button3><input type=""button"" id = ""button3"" value=""3"" onClick = ""pressSubmit(3, 81)""></div><div class = Button4><input type=""button"" id = ""button4"" value=""4"" onClick = ""pressSubmit(4, 81)""></div><div class = Button5><input type=""button"" id = ""button5"" value=""5"" onClick = ""pressSubmit(5, 81)""></div><div class = Button6><input type=""button"" id = ""button6"" value=""6"" onClick = ""pressSubmit(6, 81)""></div><div class = Button7><input type=""button"" id = ""button7"" value=""7"" onClick = ""pressSubmit(7, 81)""></div></div></div></div>","81","3666","72","4","milkduds.bmp","","","","","","","","",""
"","1450","81","1450","-1","pre_task","poldrack-single-stim","75","239310","0.0-1.0-73.0","go_nogo","true","0","","<div class = bigBox><div class = pictureBox><img class='img.displayed' src='/static/experiments/gng_food/images/Doritosranch.bmp'></img></div><div class = sliderbox><div class = buttonBox><div class = Button1><input type=""button"" id = ""button1"" value=""1"" onClick = ""pressSubmit(1, 81)""></div><div class = Button2><input type=""button"" id = ""button2"" value=""2"" onClick = ""pressSubmit(2, 81)""></div><div class = Button3><input type=""button"" id = ""button3"" value=""3"" onClick = ""pressSubmit(3, 81)""></div><div class = Button4><input type=""button"" id = ""button4"" value=""4"" onClick = ""pressSubmit(4, 81)""></div><div class = Button5><input type=""button"" id = ""button5"" value=""5"" onClick = ""pressSubmit(5, 81)""></div><div class = Button6><input type=""button"" id = ""button6"" value=""6"" onClick = ""pressSubmit(6, 81)""></div><div class = Button7><input type=""button"" id = ""button7"" value=""7"" onClick = ""pressSubmit(7, 81)""></div></div></div></div>","81","1450","73","5","Doritosranch.bmp","","","","","","","","",""
"","1383","81","1383","-1","pre_task","poldrack-single-stim","76","240693","0.0-1.0-74.0","go_nogo","true","0","","<div class = bigBox><div class = pictureBox><img class='img.displayed' src='/static/experiments/gng_food/images/CheesyDoritos.bmp'></img></div><div class = sliderbox><div class = buttonBox><div class = Button1><input type=""button"" id = ""button1"" value=""1"" onClick = ""pressSubmit(1, 81)""></div><div class = Button2><input type=""button"" id = ""button2"" value=""2"" onClick = ""pressSubmit(2, 81)""></div><div class = Button3><input type=""button"" id = ""button3"" value=""3"" onClick = ""pressSubmit(3, 81)""></div><div class = Button4><input type=""button"" id = ""button4"" value=""4"" onClick = ""pressSubmit(4, 81)""></div><div class = Button5><input type=""button"" id = ""button5"" value=""5"" onClick = ""pressSubmit(5, 81)""></div><div class = Button6><input type=""button"" id = ""button6"" value=""6"" onClick = ""pressSubmit(6, 81)""></div><div class = Button7><input type=""button"" id = ""button7"" value=""7"" onClick = ""pressSubmit(7, 81)""></div></div></div></div>","81","1383","74","6","CheesyDoritos.bmp","","","","","","","","",""
"","1327","81","1327","-1","pre_task","poldrack-single-stim","77","242021","0.0-1.0-75.0","go_nogo","true","0","","<div class = bigBox><div class = pictureBox><img class='img.displayed' src='/static/experiments/gng_food/images/strawberries.bmp'></img></div><div class = sliderbox><div class = buttonBox><div class = Button1><input type=""button"" id = ""button1"" value=""1"" onClick = ""pressSubmit(1, 81)""></div><div class = Button2><input type=""button"" id = ""button2"" value=""2"" onClick = ""pressSubmit(2, 81)""></div><div class = Button3><input type=""button"" id = ""button3"" value=""3"" onClick = ""pressSubmit(3, 81)""></div><div class = Button4><input type=""button"" id = ""button4"" value=""4"" onClick = ""pressSubmit(4, 81)""></div><div class = Button5><input type=""button"" id = ""button5"" value=""5"" onClick = ""pressSubmit(5, 81)""></div><div class = Button6><input type=""button"" id = ""button6"" value=""6"" onClick = ""pressSubmit(6, 81)""></div><div class = Button7><input type=""button"" id = ""button7"" value=""7"" onClick = ""pressSubmit(7, 81)""></div></div></div></div>","81","1327","75","7","strawberries.bmp","","","","","","","","",""
"","1416","81","1416","-1","pre_task","poldrack-single-stim","78","243439","0.0-1.0-76.0","go_nogo","true","0","","<div class = bigBox><div class = pictureBox><img class='img.displayed' src='/static/experiments/gng_food/images/keeblerfudgestripes.bmp'></img></div><div class = sliderbox><div class = buttonBox><div class = Button1><input type=""button"" id = ""button1"" value=""1"" onClick = ""pressSubmit(1, 81)""></div><div class = Button2><input type=""button"" id = ""button2"" value=""2"" onClick = ""pressSubmit(2, 81)""></div><div class = Button3><input type=""button"" id = ""button3"" value=""3"" onClick = ""pressSubmit(3, 81)""></div><div class = Button4><input type=""button"" id = ""button4"" value=""4"" onClick = ""pressSubmit(4, 81)""></div><div class = Button5><input type=""button"" id = ""button5"" value=""5"" onClick = ""pressSubmit(5, 81)""></div><div class = Button6><input type=""button"" id = ""button6"" value=""6"" onClick = ""pressSubmit(6, 81)""></div><div class = Button7><input type=""button"" id = ""button7"" value=""7"" onClick = ""pressSubmit(7, 81)""></div></div></div></div>","81","1416","76","6","keeblerfudgestripes.bmp","","","","","","","","",""
"","2148","81","2148","-1","pre_task","poldrack-single-stim","79","245587","0.0-1.0-77.0","go_nogo","true","0","","<div class = bigBox><div class = pictureBox><img class='img.displayed' src='/static/experiments/gng_food/images/PeanutMMs.bmp'></img></div><div class = sliderbox><div class = buttonBox><div class = Button1><input type=""button"" id = ""button1"" value=""1"" onClick = ""pressSubmit(1, 81)""></div><div class = Button2><input type=""button"" id = ""button2"" value=""2"" onClick = ""pressSubmit(2, 81)""></div><div class = Button3><input type=""button"" id = ""button3"" value=""3"" onClick = ""pressSubmit(3, 81)""></div><div class = Button4><input type=""button"" id = ""button4"" value=""4"" onClick = ""pressSubmit(4, 81)""></div><div class = Button5><input type=""button"" id = ""button5"" value=""5"" onClick = ""pressSubmit(5, 81)""></div><div class = Button6><input type=""button"" id = ""button6"" value=""6"" onClick = ""pressSubmit(6, 81)""></div><div class = Button7><input type=""button"" id = ""button7"" value=""7"" onClick = ""pressSubmit(7, 81)""></div></div></div></div>","81","2148","77","3","PeanutMMs.bmp","","","","","","","","",""
"","2148","81","2148","-1","pre_task","poldrack-single-stim","80","247736","0.0-1.0-78.0","go_nogo","true","0","","<div class = bigBox><div class = pictureBox><img class='img.displayed' src='/static/experiments/gng_food/images/vanillapudding.bmp'></img></div><div class = sliderbox><div class = buttonBox><div class = Button1><input type=""button"" id = ""button1"" value=""1"" onClick = ""pressSubmit(1, 81)""></div><div class = Button2><input type=""button"" id = ""button2"" value=""2"" onClick = ""pressSubmit(2, 81)""></div><div class = Button3><input type=""button"" id = ""button3"" value=""3"" onClick = ""pressSubmit(3, 81)""></div><div class = Button4><input type=""button"" id = ""button4"" value=""4"" onClick = ""pressSubmit(4, 81)""></div><div class = Button5><input type=""button"" id = ""button5"" value=""5"" onClick = ""pressSubmit(5, 81)""></div><div class = Button6><input type=""button"" id = ""button6"" value=""6"" onClick = ""pressSubmit(6, 81)""></div><div class = Button7><input type=""button"" id = ""button7"" value=""7"" onClick = ""pressSubmit(7, 81)""></div></div></div></div>","81","2148","78","5","vanillapudding.bmp","","","","","","","","",""
"","2001","81","2001","-1","pre_task","poldrack-single-stim","81","249739","0.0-1.0-79.0","go_nogo","true","0","","<div class = bigBox><div class = pictureBox><img class='img.displayed' src='/static/experiments/gng_food/images/Dots_one.bmp'></img></div><div class = sliderbox><div class = buttonBox><div class = Button1><input type=""button"" id = ""button1"" value=""1"" onClick = ""pressSubmit(1, 81)""></div><div class = Button2><input type=""button"" id = ""button2"" value=""2"" onClick = ""pressSubmit(2, 81)""></div><div class = Button3><input type=""button"" id = ""button3"" value=""3"" onClick = ""pressSubmit(3, 81)""></div><div class = Button4><input type=""button"" id = ""button4"" value=""4"" onClick = ""pressSubmit(4, 81)""></div><div class = Button5><input type=""button"" id = ""button5"" value=""5"" onClick = ""pressSubmit(5, 81)""></div><div class = Button6><input type=""button"" id = ""button6"" value=""6"" onClick = ""pressSubmit(6, 81)""></div><div class = Button7><input type=""button"" id = ""button7"" value=""7"" onClick = ""pressSubmit(7, 81)""></div></div></div></div>","81","2001","79","2","Dots_one.bmp","","","","","","","","",""
"","1360","81","1360","-1","pre_task","poldrack-single-stim","82","251100","0.0-1.0-80.0","go_nogo","true","0","","<div class = bigBox><div class = pictureBox><img class='img.displayed' src='/static/experiments/gng_food/images/AppleJacks.bmp'></img></div><div class = sliderbox><div class = buttonBox><div class = Button1><input type=""button"" id = ""button1"" value=""1"" onClick = ""pressSubmit(1, 81)""></div><div class = Button2><input type=""button"" id = ""button2"" value=""2"" onClick = ""pressSubmit(2, 81)""></div><div class = Button3><input type=""button"" id = ""button3"" value=""3"" onClick = ""pressSubmit(3, 81)""></div><div class = Button4><input type=""button"" id = ""button4"" value=""4"" onClick = ""pressSubmit(4, 81)""></div><div class = Button5><input type=""button"" id = ""button5"" value=""5"" onClick = ""pressSubmit(5, 81)""></div><div class = Button6><input type=""button"" id = ""button6"" value=""6"" onClick = ""pressSubmit(6, 81)""></div><div class = Button7><input type=""button"" id = ""button7"" value=""7"" onClick = ""pressSubmit(7, 81)""></div></div></div></div>","81","1360","80","6","AppleJacks.bmp","","","","","","","","",""
"","1360","81","1360","-1","pre_task","poldrack-single-stim","83","252461","0.0-1.0-81.0","go_nogo","true","0","","<div class = bigBox><div class = pictureBox><img class='img.displayed' src='/static/experiments/gng_food/images/slimfastV.bmp'></img></div><div class = sliderbox><div class = buttonBox><div class = Button1><input type=""button"" id = ""button1"" value=""1"" onClick = ""pressSubmit(1, 81)""></div><div class = Button2><input type=""button"" id = ""button2"" value=""2"" onClick = ""pressSubmit(2, 81)""></div><div class = Button3><input type=""button"" id = ""button3"" value=""3"" onClick = ""pressSubmit(3, 81)""></div><div class = Button4><input type=""button"" id = ""button4"" value=""4"" onClick = ""pressSubmit(4, 81)""></div><div class = Button5><input type=""button"" id = ""button5"" value=""5"" onClick = ""pressSubmit(5, 81)""></div><div class = Button6><input type=""button"" id = ""button6"" value=""6"" onClick = ""pressSubmit(6, 81)""></div><div class = Button7><input type=""button"" id = ""button7"" value=""7"" onClick = ""pressSubmit(7, 81)""></div></div></div></div>","81","1360","81","4","slimfastV.bmp","","","","","","","","",""
"","1517","81","1517","-1","pre_task","poldrack-single-stim","84","253980","0.0-1.0-82.0","go_nogo","true","0","","<div class = bigBox><div class = pictureBox><img class='img.displayed' src='/static/experiments/gng_food/images/CornPops.bmp'></img></div><div class = sliderbox><div class = buttonBox><div class = Button1><input type=""button"" id = ""button1"" value=""1"" onClick = ""pressSubmit(1, 81)""></div><div class = Button2><input type=""button"" id = ""button2"" value=""2"" onClick = ""pressSubmit(2, 81)""></div><div class = Button3><input type=""button"" id = ""button3"" value=""3"" onClick = ""pressSubmit(3, 81)""></div><div class = Button4><input type=""button"" id = ""button4"" value=""4"" onClick = ""pressSubmit(4, 81)""></div><div class = Button5><input type=""button"" id = ""button5"" value=""5"" onClick = ""pressSubmit(5, 81)""></div><div class = Button6><input type=""button"" id = ""button6"" value=""6"" onClick = ""pressSubmit(6, 81)""></div><div class = Button7><input type=""button"" id = ""button7"" value=""7"" onClick = ""pressSubmit(7, 81)""></div></div></div></div>","81","1517","82","5","CornPops.bmp","","","","","","","","",""
"","2418","81","2418","-1","pre_task","poldrack-single-stim","85","256399","0.0-1.0-83.0","go_nogo","true","0","","<div class = bigBox><div class = pictureBox><img class='img.displayed' src='/static/experiments/gng_food/images/toast_peanutbutter.bmp'></img></div><div class = sliderbox><div class = buttonBox><div class = Button1><input type=""button"" id = ""button1"" value=""1"" onClick = ""pressSubmit(1, 81)""></div><div class = Button2><input type=""button"" id = ""button2"" value=""2"" onClick = ""pressSubmit(2, 81)""></div><div class = Button3><input type=""button"" id = ""button3"" value=""3"" onClick = ""pressSubmit(3, 81)""></div><div class = Button4><input type=""button"" id = ""button4"" value=""4"" onClick = ""pressSubmit(4, 81)""></div><div class = Button5><input type=""button"" id = ""button5"" value=""5"" onClick = ""pressSubmit(5, 81)""></div><div class = Button6><input type=""button"" id = ""button6"" value=""6"" onClick = ""pressSubmit(6, 81)""></div><div class = Button7><input type=""button"" id = ""button7"" value=""7"" onClick = ""pressSubmit(7, 81)""></div></div></div></div>","81","2418","83","3","toast_peanutbutter.bmp","","","","","","","","",""
