"text","rt","key_press","block_duration","timing_post_trial","exp_id","trial_id","trial_type","trial_index","time_elapsed","internal_node_id","view_history","stimulus","possible_responses","stim_duration","stim","correct_response","current_block","exp_stage","stop_type","stop_color","SS_delay","SS_trial_type","SS_duration","SS_stimulus","stop_acc","go_acc","left_stim","left_stim_type","left_stim_correct_response","right_stim","right_stim_type","right_stim_correct_response","chosen_forced_stim","chosen_forced_stim_type","chosen_forced_correct_response"
"<div class = centerbox><p class = center-textJamie>Welcome to the task!</p><p class = center-textJamie>Press<strong> enter</strong> to continue.</p></div>","1605","13","1605","0","stop_change","welcome","poldrack-text","0","1607","0.0-0.0","","","","","","","","","","","","","","","","","","","","","","","","",""
"","9205","","","","stop_change","instruction","poldrack-instructions","1","10813","0.0-1.0","[{""page_index"":0,""viewing_time"":9204}]","","","","","","","","","","","","","","","","","","","","","","","",""
"","1483","13","1483","0","stop_change","stop_intro_phase1","poldrack-single-stim","2","13303","0.0-2.0","","<div class = centerbox><p class = block-text>We will now start the practice for the experiment.<br><br>For these trials, you must press the <strong>left key </strong> or the <strong>right key</strong> depending on the shape of the stimulus.  Make sure to respond as quickly and accurately as possible to the shape. <br><br> The responses for each shape are as follows: <ul list-text><li>circle: left key</li><li>triangle: left key</li><li>rhombus: right key</li><li>pentagon: right key</li></ul></p><p class = block-text>Remember these rules before you proceed.</p><p class = block-text>Press <strong> enter</strong> to begin.</p></div>","13","1483","","","","","","","","","","","","","","","","","","","","",""
"","675","13","675","0","stop_change","practice-no-stop-feedback","poldrack-single-stim","3","13979","0.0-3.0-0.0","","<div class = centerbox><p class = block-text>We will now start with a practice session. In this practice concentrate on responding quickly and accurately to each stimuli.</p></div>","13","675","","","","","","","","","","","","","","","","","","","","",""
"","-1","-1","500","0","stop_change","prompt_fixation","poldrack-single-stim","4","14482","0.0-3.0-1.0","","<div class = centerbox><div class = fixation>+</div></div>","none","500","","","","","","","","","","","","","","","","","","","","",""
"","673","39","850","0","stop_change","practice_trial","poldrack-single-stim","5","15341","0.0-3.0-2.0","","<img class = center src='/static/experiments/stop_change/images/black_rhombus.png'></img>","37,39","850","black_rhombus","39","0","practice1","practice_no_stop","practice_no_stop","","","","","","","","","","","","","","",""
"","-1","-1","1400","0","stop_change","ITI","poldrack-single-stim","6","16746","0.0-3.0-3.0","","<div></div>","32","1400","","","","","","","","","","","","","","","","","","","","",""
"","-1","-1","500","0","stop_change","prompt_fixation","poldrack-single-stim","7","17250","0.0-3.0-4.0","","<div class = centerbox><div class = fixation>+</div></div>","none","500","","","","","","","","","","","","","","","","","","","","",""
"","823","37","850","0","stop_change","practice_trial","poldrack-single-stim","8","18103","0.0-3.0-5.0","","<img class = center src='/static/experiments/stop_change/images/black_triangle.png'></img>","37,39","850","black_triangle","37","0","practice1","practice_no_stop","practice_no_stop","","","","","","","","","","","","","","",""
"","-1","-1","1400","0","stop_change","ITI","poldrack-single-stim","9","19508","0.0-3.0-6.0","","<div></div>","32","1400","","","","","","","","","","","","","","","","","","","","",""
"","-1","-1","500","0","stop_change","prompt_fixation","poldrack-single-stim","10","20013","0.0-3.0-7.0","","<div class = centerbox><div class = fixation>+</div></div>","none","500","","","","","","","","","","","","","","","","","","","","",""
"","390","37","850","0","stop_change","practice_trial","poldrack-single-stim","11","20869","0.0-3.0-8.0","","<img class = center src='/static/experiments/stop_change/images/black_circle.png'></img>","37,39","850","black_circle","37","0","practice1","practice_no_stop","practice_no_stop","","","","","","","","","","","","","","",""
"","-1","-1","1400","0","stop_change","ITI","poldrack-single-stim","12","22272","0.0-3.0-9.0","","<div></div>","32","1400","","","","","","","","","","","","","","","","","","","","",""
"","-1","-1","500","0","stop_change","prompt_fixation","poldrack-single-stim","13","22775","0.0-3.0-10.0","","<div class = centerbox><div class = fixation>+</div></div>","none","500","","","","","","","","","","","","","","","","","","","","",""
"","474","39","850","0","stop_change","practice_trial","poldrack-single-stim","14","23632","0.0-3.0-11.0","","<img class = center src='/static/experiments/stop_change/images/black_rhombus.png'></img>","37,39","850","black_rhombus","39","0","practice1","practice_no_stop","practice_no_stop","","","","","","","","","","","","","","",""
"","-1","-1","1400","0","stop_change","ITI","poldrack-single-stim","15","25038","0.0-3.0-12.0","","<div></div>","32","1400","","","","","","","","","","","","","","","","","","","","",""
"","-1","-1","500","0","stop_change","prompt_fixation","poldrack-single-stim","16","25544","0.0-3.0-13.0","","<div class = centerbox><div class = fixation>+</div></div>","none","500","","","","","","","","","","","","","","","","","","","","",""
"","520","37","850","0","stop_change","practice_trial","poldrack-single-stim","17","26399","0.0-3.0-14.0","","<img class = center src='/static/experiments/stop_change/images/black_circle.png'></img>","37,39","850","black_circle","37","0","practice1","practice_no_stop","practice_no_stop","","","","","","","","","","","","","","",""
"","-1","-1","1400","0","stop_change","ITI","poldrack-single-stim","18","27802","0.0-3.0-15.0","","<div></div>","32","1400","","","","","","","","","","","","","","","","","","","","",""
"","-1","-1","500","0","stop_change","prompt_fixation","poldrack-single-stim","19","28307","0.0-3.0-16.0","","<div class = centerbox><div class = fixation>+</div></div>","none","500","","","","","","","","","","","","","","","","","","","","",""
"","531","39","850","0","stop_change","practice_trial","poldrack-single-stim","20","29165","0.0-3.0-17.0","","<img class = center src='/static/experiments/stop_change/images/black_pentagon.png'></img>","37,39","850","black_pentagon","39","0","practice1","practice_no_stop","practice_no_stop","","","","","","","","","","","","","","",""
"","-1","-1","1400","0","stop_change","ITI","poldrack-single-stim","21","30571","0.0-3.0-18.0","","<div></div>","32","1400","","","","","","","","","","","","","","","","","","","","",""
"","-1","-1","500","0","stop_change","prompt_fixation","poldrack-single-stim","22","31073","0.0-3.0-19.0","","<div class = centerbox><div class = fixation>+</div></div>","none","500","","","","","","","","","","","","","","","","","","","","",""
"","686","39","850","0","stop_change","practice_trial","poldrack-single-stim","23","31935","0.0-3.0-20.0","","<img class = center src='/static/experiments/stop_change/images/black_pentagon.png'></img>","37,39","850","black_pentagon","39","0","practice1","practice_no_stop","practice_no_stop","","","","","","","","","","","","","","",""
"","-1","-1","1400","0","stop_change","ITI","poldrack-single-stim","24","33340","0.0-3.0-21.0","","<div></div>","32","1400","","","","","","","","","","","","","","","","","","","","",""
"","-1","-1","500","0","stop_change","prompt_fixation","poldrack-single-stim","25","33845","0.0-3.0-22.0","","<div class = centerbox><div class = fixation>+</div></div>","none","500","","","","","","","","","","","","","","","","","","","","",""
"","689","39","850","0","stop_change","practice_trial","poldrack-single-stim","26","34703","0.0-3.0-23.0","","<img class = center src='/static/experiments/stop_change/images/black_rhombus.png'></img>","37,39","850","black_rhombus","39","0","practice1","practice_no_stop","practice_no_stop","","","","","","","","","","","","","","",""
"","-1","-1","1400","0","stop_change","ITI","poldrack-single-stim","27","36109","0.0-3.0-24.0","","<div></div>","32","1400","","","","","","","","","","","","","","","","","","","","",""
"","-1","-1","500","0","stop_change","prompt_fixation","poldrack-single-stim","28","36615","0.0-3.0-25.0","","<div class = centerbox><div class = fixation>+</div></div>","none","500","","","","","","","","","","","","","","","","","","","","",""
"","420","37","850","0","stop_change","practice_trial","poldrack-single-stim","29","37478","0.0-3.0-26.0","","<img class = center src='/static/experiments/stop_change/images/black_triangle.png'></img>","37,39","850","black_triangle","37","0","practice1","practice_no_stop","practice_no_stop","","","","","","","","","","","","","","",""
"","-1","-1","1400","0","stop_change","ITI","poldrack-single-stim","30","38883","0.0-3.0-27.0","","<div></div>","32","1400","","","","","","","","","","","","","","","","","","","","",""
"","-1","-1","500","0","stop_change","prompt_fixation","poldrack-single-stim","31","39388","0.0-3.0-28.0","","<div class = centerbox><div class = fixation>+</div></div>","none","500","","","","","","","","","","","","","","","","","","","","",""
"","481","39","850","0","stop_change","practice_trial","poldrack-single-stim","32","40247","0.0-3.0-29.0","","<img class = center src='/static/experiments/stop_change/images/black_rhombus.png'></img>","37,39","850","black_rhombus","39","0","practice1","practice_no_stop","practice_no_stop","","","","","","","","","","","","","","",""
"","-1","-1","1400","0","stop_change","ITI","poldrack-single-stim","33","41651","0.0-3.0-30.0","","<div></div>","32","1400","","","","","","","","","","","","","","","","","","","","",""
"","-1","-1","500","0","stop_change","prompt_fixation","poldrack-single-stim","34","42157","0.0-3.0-31.0","","<div class = centerbox><div class = fixation>+</div></div>","none","500","","","","","","","","","","","","","","","","","","","","",""
"","598","37","850","0","stop_change","practice_trial","poldrack-single-stim","35","43015","0.0-3.0-32.0","","<img class = center src='/static/experiments/stop_change/images/black_triangle.png'></img>","37,39","850","black_triangle","37","0","practice1","practice_no_stop","practice_no_stop","","","","","","","","","","","","","","",""
"","-1","-1","1400","0","stop_change","ITI","poldrack-single-stim","36","44420","0.0-3.0-33.0","","<div></div>","32","1400","","","","","","","","","","","","","","","","","","","","",""
"","-1","-1","500","0","stop_change","prompt_fixation","poldrack-single-stim","37","44925","0.0-3.0-34.0","","<div class = centerbox><div class = fixation>+</div></div>","none","500","","","","","","","","","","","","","","","","","","","","",""
"","473","37","850","0","stop_change","practice_trial","poldrack-single-stim","38","45789","0.0-3.0-35.0","","<img class = center src='/static/experiments/stop_change/images/black_triangle.png'></img>","37,39","850","black_triangle","37","0","practice1","practice_no_stop","practice_no_stop","","","","","","","","","","","","","","",""
"","-1","-1","1400","0","stop_change","ITI","poldrack-single-stim","39","47194","0.0-3.0-36.0","","<div></div>","32","1400","","","","","","","","","","","","","","","","","","","","",""
"","-1","-1","500","0","stop_change","prompt_fixation","poldrack-single-stim","40","47699","0.0-3.0-37.0","","<div class = centerbox><div class = fixation>+</div></div>","none","500","","","","","","","","","","","","","","","","","","","","",""
"","406","37","850","0","stop_change","practice_trial","poldrack-single-stim","41","48558","0.0-3.0-38.0","","<img class = center src='/static/experiments/stop_change/images/black_circle.png'></img>","37,39","850","black_circle","37","0","practice1","practice_no_stop","practice_no_stop","","","","","","","","","","","","","","",""
"","-1","-1","1400","0","stop_change","ITI","poldrack-single-stim","42","49963","0.0-3.0-39.0","","<div></div>","32","1400","","","","","","","","","","","","","","","","","","","","",""
"","-1","-1","500","0","stop_change","prompt_fixation","poldrack-single-stim","43","50468","0.0-3.0-40.0","","<div class = centerbox><div class = fixation>+</div></div>","none","500","","","","","","","","","","","","","","","","","","","","",""
"","600","37","850","0","stop_change","practice_trial","poldrack-single-stim","44","51332","0.0-3.0-41.0","","<img class = center src='/static/experiments/stop_change/images/black_triangle.png'></img>","37,39","850","black_triangle","37","0","practice1","practice_no_stop","practice_no_stop","","","","","","","","","","","","","","",""
"","-1","-1","1400","0","stop_change","ITI","poldrack-single-stim","45","52737","0.0-3.0-42.0","","<div></div>","32","1400","","","","","","","","","","","","","","","","","","","","",""
"","-1","-1","500","0","stop_change","prompt_fixation","poldrack-single-stim","46","53241","0.0-3.0-43.0","","<div class = centerbox><div class = fixation>+</div></div>","none","500","","","","","","","","","","","","","","","","","","","","",""
"","515","39","850","0","stop_change","practice_trial","poldrack-single-stim","47","54102","0.0-3.0-44.0","","<img class = center src='/static/experiments/stop_change/images/black_pentagon.png'></img>","37,39","850","black_pentagon","39","0","practice1","practice_no_stop","practice_no_stop","","","","","","","","","","","","","","",""
"","-1","-1","1400","0","stop_change","ITI","poldrack-single-stim","48","55506","0.0-3.0-45.0","","<div></div>","32","1400","","","","","","","","","","","","","","","","","","","","",""
"","-1","-1","500","0","stop_change","prompt_fixation","poldrack-single-stim","49","56011","0.0-3.0-46.0","","<div class = centerbox><div class = fixation>+</div></div>","none","500","","","","","","","","","","","","","","","","","","","","",""
"","340","37","850","0","stop_change","practice_trial","poldrack-single-stim","50","56874","0.0-3.0-47.0","","<img class = center src='/static/experiments/stop_change/images/black_circle.png'></img>","37,39","850","black_circle","37","0","practice1","practice_no_stop","practice_no_stop","","","","","","","","","","","","","","",""
"","-1","-1","1400","0","stop_change","ITI","poldrack-single-stim","51","58280","0.0-3.0-48.0","","<div></div>","32","1400","","","","","","","","","","","","","","","","","","","","",""
"","-1","-1","500","0","stop_change","prompt_fixation","poldrack-single-stim","52","58785","0.0-3.0-49.0","","<div class = centerbox><div class = fixation>+</div></div>","none","500","","","","","","","","","","","","","","","","","","","","",""
"","458","39","850","0","stop_change","practice_trial","poldrack-single-stim","53","59648","0.0-3.0-50.0","","<img class = center src='/static/experiments/stop_change/images/black_pentagon.png'></img>","37,39","850","black_pentagon","39","0","practice1","practice_no_stop","practice_no_stop","","","","","","","","","","","","","","",""
"","-1","-1","1400","0","stop_change","ITI","poldrack-single-stim","54","61054","0.0-3.0-51.0","","<div></div>","32","1400","","","","","","","","","","","","","","","","","","","","",""
"","-1","-1","500","0","stop_change","prompt_fixation","poldrack-single-stim","55","61558","0.0-3.0-52.0","","<div class = centerbox><div class = fixation>+</div></div>","none","500","","","","","","","","","","","","","","","","","","","","",""
"","437","39","850","0","stop_change","practice_trial","poldrack-single-stim","56","62418","0.0-3.0-53.0","","<img class = center src='/static/experiments/stop_change/images/black_pentagon.png'></img>","37,39","850","black_pentagon","39","0","practice1","practice_no_stop","practice_no_stop","","","","","","","","","","","","","","",""
"","-1","-1","1400","0","stop_change","ITI","poldrack-single-stim","57","63823","0.0-3.0-54.0","","<div></div>","32","1400","","","","","","","","","","","","","","","","","","","","",""
"","-1","-1","500","0","stop_change","prompt_fixation","poldrack-single-stim","58","64328","0.0-3.0-55.0","","<div class = centerbox><div class = fixation>+</div></div>","none","500","","","","","","","","","","","","","","","","","","","","",""
"","436","37","850","0","stop_change","practice_trial","poldrack-single-stim","59","65193","0.0-3.0-56.0","","<img class = center src='/static/experiments/stop_change/images/black_circle.png'></img>","37,39","850","black_circle","37","0","practice1","practice_no_stop","practice_no_stop","","","","","","","","","","","","","","",""
"","-1","-1","1400","0","stop_change","ITI","poldrack-single-stim","60","66597","0.0-3.0-57.0","","<div></div>","32","1400","","","","","","","","","","","","","","","","","","","","",""
"","-1","-1","500","0","stop_change","prompt_fixation","poldrack-single-stim","61","67101","0.0-3.0-58.0","","<div class = centerbox><div class = fixation>+</div></div>","none","500","","","","","","","","","","","","","","","","","","","","",""
"","444","39","850","0","stop_change","practice_trial","poldrack-single-stim","62","67962","0.0-3.0-59.0","","<img class = center src='/static/experiments/stop_change/images/black_pentagon.png'></img>","37,39","850","black_pentagon","39","0","practice1","practice_no_stop","practice_no_stop","","","","","","","","","","","","","","",""
"","-1","-1","1400","0","stop_change","ITI","poldrack-single-stim","63","69370","0.0-3.0-60.0","","<div></div>","32","1400","","","","","","","","","","","","","","","","","","","","",""
"","-1","-1","500","0","stop_change","prompt_fixation","poldrack-single-stim","64","69876","0.0-3.0-61.0","","<div class = centerbox><div class = fixation>+</div></div>","none","500","","","","","","","","","","","","","","","","","","","","",""
"","546","37","850","0","stop_change","practice_trial","poldrack-single-stim","65","70737","0.0-3.0-62.0","","<img class = center src='/static/experiments/stop_change/images/black_triangle.png'></img>","37,39","850","black_triangle","37","0","practice1","practice_no_stop","practice_no_stop","","","","","","","","","","","","","","",""
"","-1","-1","1400","0","stop_change","ITI","poldrack-single-stim","66","72143","0.0-3.0-63.0","","<div></div>","32","1400","","","","","","","","","","","","","","","","","","","","",""
"","-1","-1","500","0","stop_change","prompt_fixation","poldrack-single-stim","67","72649","0.0-3.0-64.0","","<div class = centerbox><div class = fixation>+</div></div>","none","500","","","","","","","","","","","","","","","","","","","","",""
"","433","37","850","0","stop_change","practice_trial","poldrack-single-stim","68","73510","0.0-3.0-65.0","","<img class = center src='/static/experiments/stop_change/images/black_triangle.png'></img>","37,39","850","black_triangle","37","0","practice1","practice_no_stop","practice_no_stop","","","","","","","","","","","","","","",""
"","-1","-1","1400","0","stop_change","ITI","poldrack-single-stim","69","74914","0.0-3.0-66.0","","<div></div>","32","1400","","","","","","","","","","","","","","","","","","","","",""
"","-1","-1","500","0","stop_change","prompt_fixation","poldrack-single-stim","70","75419","0.0-3.0-67.0","","<div class = centerbox><div class = fixation>+</div></div>","none","500","","","","","","","","","","","","","","","","","","","","",""
"","494","37","850","0","stop_change","practice_trial","poldrack-single-stim","71","76278","0.0-3.0-68.0","","<img class = center src='/static/experiments/stop_change/images/black_triangle.png'></img>","37,39","850","black_triangle","37","0","practice1","practice_no_stop","practice_no_stop","","","","","","","","","","","","","","",""
"","-1","-1","1400","0","stop_change","ITI","poldrack-single-stim","72","77683","0.0-3.0-69.0","","<div></div>","32","1400","","","","","","","","","","","","","","","","","","","","",""
"","-1","-1","500","0","stop_change","prompt_fixation","poldrack-single-stim","73","78188","0.0-3.0-70.0","","<div class = centerbox><div class = fixation>+</div></div>","none","500","","","","","","","","","","","","","","","","","","","","",""
"","394","37","850","0","stop_change","practice_trial","poldrack-single-stim","74","79050","0.0-3.0-71.0","","<img class = center src='/static/experiments/stop_change/images/black_circle.png'></img>","37,39","850","black_circle","37","0","practice1","practice_no_stop","practice_no_stop","","","","","","","","","","","","","","",""
"","-1","-1","1400","0","stop_change","ITI","poldrack-single-stim","75","80457","0.0-3.0-72.0","","<div></div>","32","1400","","","","","","","","","","","","","","","","","","","","",""
"","-1","-1","500","0","stop_change","prompt_fixation","poldrack-single-stim","76","80962","0.0-3.0-73.0","","<div class = centerbox><div class = fixation>+</div></div>","none","500","","","","","","","","","","","","","","","","","","","","",""
"","474","39","850","0","stop_change","practice_trial","poldrack-single-stim","77","81826","0.0-3.0-74.0","","<img class = center src='/static/experiments/stop_change/images/black_pentagon.png'></img>","37,39","850","black_pentagon","39","0","practice1","practice_no_stop","practice_no_stop","","","","","","","","","","","","","","",""
"","-1","-1","1400","0","stop_change","ITI","poldrack-single-stim","78","83231","0.0-3.0-75.0","","<div></div>","32","1400","","","","","","","","","","","","","","","","","","","","",""
"","-1","-1","500","0","stop_change","prompt_fixation","poldrack-single-stim","79","83736","0.0-3.0-76.0","","<div class = centerbox><div class = fixation>+</div></div>","none","500","","","","","","","","","","","","","","","","","","","","",""
"","566","39","850","0","stop_change","practice_trial","poldrack-single-stim","80","84596","0.0-3.0-77.0","","<img class = center src='/static/experiments/stop_change/images/black_rhombus.png'></img>","37,39","850","black_rhombus","39","0","practice1","practice_no_stop","practice_no_stop","","","","","","","","","","","","","","",""
"","-1","-1","1400","0","stop_change","ITI","poldrack-single-stim","81","85999","0.0-3.0-78.0","","<div></div>","32","1400","","","","","","","","","","","","","","","","","","","","",""
"","-1","-1","500","0","stop_change","prompt_fixation","poldrack-single-stim","82","86504","0.0-3.0-79.0","","<div class = centerbox><div class = fixation>+</div></div>","none","500","","","","","","","","","","","","","","","","","","","","",""
"","503","37","850","0","stop_change","practice_trial","poldrack-single-stim","83","87364","0.0-3.0-80.0","","<img class = center src='/static/experiments/stop_change/images/black_circle.png'></img>","37,39","850","black_circle","37","0","practice1","practice_no_stop","practice_no_stop","","","","","","","","","","","","","","",""
"","-1","-1","1400","0","stop_change","ITI","poldrack-single-stim","84","88769","0.0-3.0-81.0","","<div></div>","32","1400","","","","","","","","","","","","","","","","","","","","",""
"","-1","-1","500","0","stop_change","prompt_fixation","poldrack-single-stim","85","89272","0.0-3.0-82.0","","<div class = centerbox><div class = fixation>+</div></div>","none","500","","","","","","","","","","","","","","","","","","","","",""
"","739","39","850","0","stop_change","practice_trial","poldrack-single-stim","86","90133","0.0-3.0-83.0","","<img class = center src='/static/experiments/stop_change/images/black_rhombus.png'></img>","37,39","850","black_rhombus","39","0","practice1","practice_no_stop","practice_no_stop","","","","","","","","","","","","","","",""
"","-1","-1","1400","0","stop_change","ITI","poldrack-single-stim","87","91537","0.0-3.0-84.0","","<div></div>","32","1400","","","","","","","","","","","","","","","","","","","","",""
"","-1","-1","500","0","stop_change","prompt_fixation","poldrack-single-stim","88","92042","0.0-3.0-85.0","","<div class = centerbox><div class = fixation>+</div></div>","none","500","","","","","","","","","","","","","","","","","","","","",""
"","761","37","850","0","stop_change","practice_trial","poldrack-single-stim","89","92905","0.0-3.0-86.0","","<img class = center src='/static/experiments/stop_change/images/black_triangle.png'></img>","37,39","850","black_triangle","37","0","practice1","practice_no_stop","practice_no_stop","","","","","","","","","","","","","","",""
"","-1","-1","1400","0","stop_change","ITI","poldrack-single-stim","90","94312","0.0-3.0-87.0","","<div></div>","32","1400","","","","","","","","","","","","","","","","","","","","",""
"","-1","-1","500","0","stop_change","prompt_fixation","poldrack-single-stim","91","94818","0.0-3.0-88.0","","<div class = centerbox><div class = fixation>+</div></div>","none","500","","","","","","","","","","","","","","","","","","","","",""
"","679","39","850","0","stop_change","practice_trial","poldrack-single-stim","92","95681","0.0-3.0-89.0","","<img class = center src='/static/experiments/stop_change/images/black_rhombus.png'></img>","37,39","850","black_rhombus","39","0","practice1","practice_no_stop","practice_no_stop","","","","","","","","","","","","","","",""
"","-1","-1","1400","0","stop_change","ITI","poldrack-single-stim","93","97086","0.0-3.0-90.0","","<div></div>","32","1400","","","","","","","","","","","","","","","","","","","","",""
"","-1","-1","500","0","stop_change","prompt_fixation","poldrack-single-stim","94","97590","0.0-3.0-91.0","","<div class = centerbox><div class = fixation>+</div></div>","none","500","","","","","","","","","","","","","","","","","","","","",""
"","532","37","850","0","stop_change","practice_trial","poldrack-single-stim","95","98450","0.0-3.0-92.0","","<img class = center src='/static/experiments/stop_change/images/black_circle.png'></img>","37,39","850","black_circle","37","0","practice1","practice_no_stop","practice_no_stop","","","","","","","","","","","","","","",""
"","-1","-1","1400","0","stop_change","ITI","poldrack-single-stim","96","99854","0.0-3.0-93.0","","<div></div>","32","1400","","","","","","","","","","","","","","","","","","","","",""
"","-1","-1","500","0","stop_change","prompt_fixation","poldrack-single-stim","97","100359","0.0-3.0-94.0","","<div class = centerbox><div class = fixation>+</div></div>","none","500","","","","","","","","","","","","","","","","","","","","",""
"","416","37","850","0","stop_change","practice_trial","poldrack-single-stim","98","101223","0.0-3.0-95.0","","<img class = center src='/static/experiments/stop_change/images/black_circle.png'></img>","37,39","850","black_circle","37","0","practice1","practice_no_stop","practice_no_stop","","","","","","","","","","","","","","",""
"","-1","-1","1400","0","stop_change","ITI","poldrack-single-stim","99","102628","0.0-3.0-96.0","","<div></div>","32","1400","","","","","","","","","","","","","","","","","","","","",""
"","-1","-1","500","0","stop_change","prompt_fixation","poldrack-single-stim","100","103134","0.0-3.0-97.0","","<div class = centerbox><div class = fixation>+</div></div>","none","500","","","","","","","","","","","","","","","","","","","","",""
"","464","37","850","0","stop_change","practice_trial","poldrack-single-stim","101","103995","0.0-3.0-98.0","","<img class = center src='/static/experiments/stop_change/images/black_triangle.png'></img>","37,39","850","black_triangle","37","0","practice1","practice_no_stop","practice_no_stop","","","","","","","","","","","","","","",""
"","-1","-1","1400","0","stop_change","ITI","poldrack-single-stim","102","105402","0.0-3.0-99.0","","<div></div>","32","1400","","","","","","","","","","","","","","","","","","","","",""
"","-1","-1","500","0","stop_change","prompt_fixation","poldrack-single-stim","103","105908","0.0-3.0-100.0","","<div class = centerbox><div class = fixation>+</div></div>","none","500","","","","","","","","","","","","","","","","","","","","",""
"","370","37","850","0","stop_change","practice_trial","poldrack-single-stim","104","106773","0.0-3.0-101.0","","<img class = center src='/static/experiments/stop_change/images/black_circle.png'></img>","37,39","850","black_circle","37","0","practice1","practice_no_stop","practice_no_stop","","","","","","","","","","","","","","",""
"","-1","-1","1400","0","stop_change","ITI","poldrack-single-stim","105","108177","0.0-3.0-102.0","","<div></div>","32","1400","","","","","","","","","","","","","","","","","","","","",""
"","-1","-1","500","0","stop_change","prompt_fixation","poldrack-single-stim","106","108681","0.0-3.0-103.0","","<div class = centerbox><div class = fixation>+</div></div>","none","500","","","","","","","","","","","","","","","","","","","","",""
"","477","39","850","0","stop_change","practice_trial","poldrack-single-stim","107","109540","0.0-3.0-104.0","","<img class = center src='/static/experiments/stop_change/images/black_rhombus.png'></img>","37,39","850","black_rhombus","39","0","practice1","practice_no_stop","practice_no_stop","","","","","","","","","","","","","","",""
"","-1","-1","1400","0","stop_change","ITI","poldrack-single-stim","108","110946","0.0-3.0-105.0","","<div></div>","32","1400","","","","","","","","","","","","","","","","","","","","",""
"","-1","-1","500","0","stop_change","prompt_fixation","poldrack-single-stim","109","111452","0.0-3.0-106.0","","<div class = centerbox><div class = fixation>+</div></div>","none","500","","","","","","","","","","","","","","","","","","","","",""
"","449","39","850","0","stop_change","practice_trial","poldrack-single-stim","110","112314","0.0-3.0-107.0","","<img class = center src='/static/experiments/stop_change/images/black_pentagon.png'></img>","37,39","850","black_pentagon","39","0","practice1","practice_no_stop","practice_no_stop","","","","","","","","","","","","","","",""
"","-1","-1","1400","0","stop_change","ITI","poldrack-single-stim","111","113719","0.0-3.0-108.0","","<div></div>","32","1400","","","","","","","","","","","","","","","","","","","","",""
"","-1","-1","500","0","stop_change","prompt_fixation","poldrack-single-stim","112","114225","0.0-3.0-109.0","","<div class = centerbox><div class = fixation>+</div></div>","none","500","","","","","","","","","","","","","","","","","","","","",""
"","455","39","850","0","stop_change","practice_trial","poldrack-single-stim","113","115087","0.0-3.0-110.0","","<img class = center src='/static/experiments/stop_change/images/black_rhombus.png'></img>","37,39","850","black_rhombus","39","0","practice1","practice_no_stop","practice_no_stop","","","","","","","","","","","","","","",""
"","-1","-1","1400","0","stop_change","ITI","poldrack-single-stim","114","116494","0.0-3.0-111.0","","<div></div>","32","1400","","","","","","","","","","","","","","","","","","","","",""
"","-1","-1","500","0","stop_change","prompt_fixation","poldrack-single-stim","115","116999","0.0-3.0-112.0","","<div class = centerbox><div class = fixation>+</div></div>","none","500","","","","","","","","","","","","","","","","","","","","",""
"","532","39","850","0","stop_change","practice_trial","poldrack-single-stim","116","117858","0.0-3.0-113.0","","<img class = center src='/static/experiments/stop_change/images/black_circle.png'></img>","37,39","850","black_circle","37","0","practice1","practice_no_stop","practice_no_stop","","","","","","","","","","","","","","",""
"","-1","-1","1400","0","stop_change","ITI","poldrack-single-stim","117","119263","0.0-3.0-114.0","","<div></div>","32","1400","","","","","","","","","","","","","","","","","","","","",""
"","-1","-1","500","0","stop_change","prompt_fixation","poldrack-single-stim","118","119767","0.0-3.0-115.0","","<div class = centerbox><div class = fixation>+</div></div>","none","500","","","","","","","","","","","","","","","","","","","","",""
"","492","37","850","0","stop_change","practice_trial","poldrack-single-stim","119","120627","0.0-3.0-116.0","","<img class = center src='/static/experiments/stop_change/images/black_triangle.png'></img>","37,39","850","black_triangle","37","0","practice1","practice_no_stop","practice_no_stop","","","","","","","","","","","","","","",""
"","-1","-1","1400","0","stop_change","ITI","poldrack-single-stim","120","122031","0.0-3.0-117.0","","<div></div>","32","1400","","","","","","","","","","","","","","","","","","","","",""
"","-1","-1","500","0","stop_change","prompt_fixation","poldrack-single-stim","121","122534","0.0-3.0-118.0","","<div class = centerbox><div class = fixation>+</div></div>","none","500","","","","","","","","","","","","","","","","","","","","",""
"","406","37","850","0","stop_change","practice_trial","poldrack-single-stim","122","123395","0.0-3.0-119.0","","<img class = center src='/static/experiments/stop_change/images/black_triangle.png'></img>","37,39","850","black_triangle","37","0","practice1","practice_no_stop","practice_no_stop","","","","","","","","","","","","","","",""
"","-1","-1","1400","0","stop_change","ITI","poldrack-single-stim","123","124799","0.0-3.0-120.0","","<div></div>","32","1400","","","","","","","","","","","","","","","","","","","","",""
"","-1","-1","500","0","stop_change","prompt_fixation","poldrack-single-stim","124","125304","0.0-3.0-121.0","","<div class = centerbox><div class = fixation>+</div></div>","none","500","","","","","","","","","","","","","","","","","","","","",""
"","474","39","850","0","stop_change","practice_trial","poldrack-single-stim","125","126164","0.0-3.0-122.0","","<img class = center src='/static/experiments/stop_change/images/black_pentagon.png'></img>","37,39","850","black_pentagon","39","0","practice1","practice_no_stop","practice_no_stop","","","","","","","","","","","","","","",""
"","-1","-1","1400","0","stop_change","ITI","poldrack-single-stim","126","127568","0.0-3.0-123.0","","<div></div>","32","1400","","","","","","","","","","","","","","","","","","","","",""
"","-1","-1","500","0","stop_change","prompt_fixation","poldrack-single-stim","127","128074","0.0-3.0-124.0","","<div class = centerbox><div class = fixation>+</div></div>","none","500","","","","","","","","","","","","","","","","","","","","",""
"","493","39","850","0","stop_change","practice_trial","poldrack-single-stim","128","128932","0.0-3.0-125.0","","<img class = center src='/static/experiments/stop_change/images/black_pentagon.png'></img>","37,39","850","black_pentagon","39","0","practice1","practice_no_stop","practice_no_stop","","","","","","","","","","","","","","",""
"","-1","-1","1400","0","stop_change","ITI","poldrack-single-stim","129","130337","0.0-3.0-126.0","","<div></div>","32","1400","","","","","","","","","","","","","","","","","","","","",""
"","-1","-1","500","0","stop_change","prompt_fixation","poldrack-single-stim","130","130842","0.0-3.0-127.0","","<div class = centerbox><div class = fixation>+</div></div>","none","500","","","","","","","","","","","","","","","","","","","","",""
"","377","39","850","0","stop_change","practice_trial","poldrack-single-stim","131","131706","0.0-3.0-128.0","","<img class = center src='/static/experiments/stop_change/images/black_rhombus.png'></img>","37,39","850","black_rhombus","39","0","practice1","practice_no_stop","practice_no_stop","","","","","","","","","","","","","","",""
"","-1","-1","1400","0","stop_change","ITI","poldrack-single-stim","132","133111","0.0-3.0-129.0","","<div></div>","32","1400","","","","","","","","","","","","","","","","","","","","",""
"","-1","-1","500","0","stop_change","prompt_fixation","poldrack-single-stim","133","133616","0.0-3.0-130.0","","<div class = centerbox><div class = fixation>+</div></div>","none","500","","","","","","","","","","","","","","","","","","","","",""
"","378","37","850","0","stop_change","practice_trial","poldrack-single-stim","134","134478","0.0-3.0-131.0","","<img class = center src='/static/experiments/stop_change/images/black_circle.png'></img>","37,39","850","black_circle","37","0","practice1","practice_no_stop","practice_no_stop","","","","","","","","","","","","","","",""
"","-1","-1","1400","0","stop_change","ITI","poldrack-single-stim","135","135884","0.0-3.0-132.0","","<div></div>","32","1400","","","","","","","","","","","","","","","","","","","","",""
"","-1","-1","500","0","stop_change","prompt_fixation","poldrack-single-stim","136","136390","0.0-3.0-133.0","","<div class = centerbox><div class = fixation>+</div></div>","none","500","","","","","","","","","","","","","","","","","","","","",""
"","567","39","850","0","stop_change","practice_trial","poldrack-single-stim","137","137249","0.0-3.0-134.0","","<img class = center src='/static/experiments/stop_change/images/black_pentagon.png'></img>","37,39","850","black_pentagon","39","0","practice1","practice_no_stop","practice_no_stop","","","","","","","","","","","","","","",""
"","-1","-1","1400","0","stop_change","ITI","poldrack-single-stim","138","138654","0.0-3.0-135.0","","<div></div>","32","1400","","","","","","","","","","","","","","","","","","","","",""
"","-1","-1","500","0","stop_change","prompt_fixation","poldrack-single-stim","139","139161","0.0-3.0-136.0","","<div class = centerbox><div class = fixation>+</div></div>","none","500","","","","","","","","","","","","","","","","","","","","",""
"","510","39","850","0","stop_change","practice_trial","poldrack-single-stim","140","140024","0.0-3.0-137.0","","<img class = center src='/static/experiments/stop_change/images/black_rhombus.png'></img>","37,39","850","black_rhombus","39","0","practice1","practice_no_stop","practice_no_stop","","","","","","","","","","","","","","",""
"","-1","-1","1400","0","stop_change","ITI","poldrack-single-stim","141","141428","0.0-3.0-138.0","","<div></div>","32","1400","","","","","","","","","","","","","","","","","","","","",""
"","-1","-1","500","0","stop_change","prompt_fixation","poldrack-single-stim","142","141933","0.0-3.0-139.0","","<div class = centerbox><div class = fixation>+</div></div>","none","500","","","","","","","","","","","","","","","","","","","","",""
"","474","39","850","0","stop_change","practice_trial","poldrack-single-stim","143","142797","0.0-3.0-140.0","","<img class = center src='/static/experiments/stop_change/images/black_pentagon.png'></img>","37,39","850","black_pentagon","39","0","practice1","practice_no_stop","practice_no_stop","","","","","","","","","","","","","","",""
"","-1","-1","1400","0","stop_change","ITI","poldrack-single-stim","144","144203","0.0-3.0-141.0","","<div></div>","32","1400","","","","","","","","","","","","","","","","","","","","",""
"","-1","-1","500","0","stop_change","prompt_fixation","poldrack-single-stim","145","144708","0.0-3.0-142.0","","<div class = centerbox><div class = fixation>+</div></div>","none","500","","","","","","","","","","","","","","","","","","","","",""
"","536","39","850","0","stop_change","practice_trial","poldrack-single-stim","146","145567","0.0-3.0-143.0","","<img class = center src='/static/experiments/stop_change/images/black_rhombus.png'></img>","37,39","850","black_rhombus","39","0","practice1","practice_no_stop","practice_no_stop","","","","","","","","","","","","","","",""
"","-1","-1","1400","0","stop_change","ITI","poldrack-single-stim","147","146970","0.0-3.0-144.0","","<div></div>","32","1400","","","","","","","","","","","","","","","","","","","","",""
"","4666","13","4666","0","stop_change","practice-no-stop-feedback","poldrack-single-stim","148","151644","0.0-4.0","","<div class = centerbox><p class = block-text><br>Please take this time to read your feedback and to take a short break! Press enter to continue</p><p class = block-text><strong>Average reaction time:  508 ms. 	Accuracy: 98%</strong></p><p class = block-text>Done with this practice.</p></div>","13","4666","","","","","","","","","","","","","","","","","","","","",""
"","13530","13","13530","0","stop_change","stop_intro_phase1","poldrack-single-stim","149","165174","0.0-5.0","","<div class = centerbox><p class = block-text>We will now start the second practice for the experiment.</p><p class = block-text>On some trials a star will appear around the shape.  If a star appears, please change your response from the left key or right key, to the Z key.</p><p class = block-text>Do not wait to see if a star will appear before you make your response.  Please continue to respond to each shape as quickly and as accurately as possible.</p><p class = block-text>Remember these rules before you proceed.</p><ul list-text><li>circle: left key</li><li>triangle: left key</li><li>rhombus: right key</li><li>pentagon: right key</li></ul><p class = block-text>If a star appears, the correct response on that trial is the Z key.</p><p class = block-text>Press <strong> enter</strong> to begin.</p></div>","13","13530","","","","","","","","","","","","","","","","","","","","",""
"","631","13","631","0","stop_change","practice-no-stop-feedback","poldrack-single-stim","150","165807","0.0-6.0-0.0","","<div class = centerbox><p class = block-text>We will now start with the second practice session. In this practice concentrate on responding quickly and accurately to each stimuli.</p></div>","13","631","","","","","","","","","","","","","","","","","","","","",""
"","-1","-1","500","0","stop_change","fixation","poldrack-single-stim","151","166310","0.0-6.0-1.0","","<div class = centerbox><div class = fixation>+</div></div>","none","500","","","","","","","","","","","","","","","","","","","","",""
"","615","39","1850","0","stop_change","practice_stop_trial","stop-signal","152","168168","0.0-6.0-2.0","","<img class = center src='/static/experiments/stop_change/images/turquoise_rhombus.png'></img>","37,39,90","850","turquoise_rhombus","39","0","practice2","go","","250","go","850","","","","","","","","","","","",""
"","-1","-1","1400","0","stop_change","ITI","poldrack-single-stim","153","169573","0.0-6.0-3.0","","<div></div>","32","1400","","","","","","","","","","","","","","","","","","","","",""
"","-1","-1","500","0","stop_change","fixation","poldrack-single-stim","154","170079","0.0-6.0-4.0","","<div class = centerbox><div class = fixation>+</div></div>","none","500","","","","","","","","","","","","","","","","","","","","",""
"","924","39","1850","0","stop_change","practice_stop_trial","stop-signal","155","171939","0.0-6.0-5.0","","<img class = center src='/static/experiments/stop_change/images/brown_pentagon.png'></img>","37,39,90","850","brown_pentagon","39","0","practice2","go","","250","go","850","","","","","","","","","","","",""
"","-1","-1","1400","0","stop_change","ITI","poldrack-single-stim","156","173345","0.0-6.0-6.0","","<div></div>","32","1400","","","","","","","","","","","","","","","","","","","","",""
"","-1","-1","500","0","stop_change","fixation","poldrack-single-stim","157","173849","0.0-6.0-7.0","","<div class = centerbox><div class = fixation>+</div></div>","none","500","","","","","","","","","","","","","","","","","","","","",""
"","1038","90","1850","0","stop_change","practice_stop_trial","stop-signal","158","175707","0.0-6.0-8.0","","<img class = center src='/static/experiments/stop_change/images/red_circle.png'></img>","37,39,90","850","red_circle","90","0","practice2","stop","blue","250","stop","850","<img class = center src='/static/experiments/stop_change/images/blue_stopSignal.png'></img>","","","","","","","","","","",""
"","-1","-1","1400","0","stop_change","ITI","poldrack-single-stim","159","177112","0.0-6.0-9.0","","<div></div>","32","1400","","","","","","","","","","","","","","","","","","","","",""
"","-1","-1","500","0","stop_change","fixation","poldrack-single-stim","160","177616","0.0-6.0-10.0","","<div class = centerbox><div class = fixation>+</div></div>","none","500","","","","","","","","","","","","","","","","","","","","",""
"","556","37","1850","0","stop_change","practice_stop_trial","stop-signal","161","179478","0.0-6.0-11.0","","<img class = center src='/static/experiments/stop_change/images/red_circle.png'></img>","37,39,90","850","red_circle","37","0","practice2","go","","250","go","850","","","","","","","","","","","",""
"","-1","-1","1400","0","stop_change","ITI","poldrack-single-stim","162","180883","0.0-6.0-12.0","","<div></div>","32","1400","","","","","","","","","","","","","","","","","","","","",""
"","-1","-1","500","0","stop_change","fixation","poldrack-single-stim","163","181389","0.0-6.0-13.0","","<div class = centerbox><div class = fixation>+</div></div>","none","500","","","","","","","","","","","","","","","","","","","","",""
"","757","90","1850","0","stop_change","practice_stop_trial","stop-signal","164","183252","0.0-6.0-14.0","","<img class = center src='/static/experiments/stop_change/images/green_triangle.png'></img>","37,39,90","850","green_triangle","90","0","practice2","stop","yellow","250","stop","850","<img class = center src='/static/experiments/stop_change/images/yellow_stopSignal.png'></img>","","","","","","","","","","",""
"","-1","-1","1400","0","stop_change","ITI","poldrack-single-stim","165","184657","0.0-6.0-15.0","","<div></div>","32","1400","","","","","","","","","","","","","","","","","","","","",""
"","-1","-1","500","0","stop_change","fixation","poldrack-single-stim","166","185163","0.0-6.0-16.0","","<div class = centerbox><div class = fixation>+</div></div>","none","500","","","","","","","","","","","","","","","","","","","","",""
"","334","37","1850","0","stop_change","practice_stop_trial","stop-signal","167","187024","0.0-6.0-17.0","","<img class = center src='/static/experiments/stop_change/images/green_triangle.png'></img>","37,39,90","850","green_triangle","37","0","practice2","go","","250","go","850","","","","","","","","","","","",""
"","-1","-1","1400","0","stop_change","ITI","poldrack-single-stim","168","188429","0.0-6.0-18.0","","<div></div>","32","1400","","","","","","","","","","","","","","","","","","","","",""
"","-1","-1","500","0","stop_change","fixation","poldrack-single-stim","169","188934","0.0-6.0-19.0","","<div class = centerbox><div class = fixation>+</div></div>","none","500","","","","","","","","","","","","","","","","","","","","",""
"","503","37","1850","0","stop_change","practice_stop_trial","stop-signal","170","190797","0.0-6.0-20.0","","<img class = center src='/static/experiments/stop_change/images/red_circle.png'></img>","37,39,90","850","red_circle","37","0","practice2","go","","250","go","850","","","","","","","","","","","",""
"","-1","-1","1400","0","stop_change","ITI","poldrack-single-stim","171","192202","0.0-6.0-21.0","","<div></div>","32","1400","","","","","","","","","","","","","","","","","","","","",""
"","-1","-1","500","0","stop_change","fixation","poldrack-single-stim","172","192706","0.0-6.0-22.0","","<div class = centerbox><div class = fixation>+</div></div>","none","500","","","","","","","","","","","","","","","","","","","","",""
"","494","37","1850","0","stop_change","practice_stop_trial","stop-signal","173","194569","0.0-6.0-23.0","","<img class = center src='/static/experiments/stop_change/images/green_triangle.png'></img>","37,39,90","850","green_triangle","90","0","practice2","stop","blue","250","stop","850","<img class = center src='/static/experiments/stop_change/images/blue_stopSignal.png'></img>","","","","","","","","","","",""
"","-1","-1","1400","0","stop_change","ITI","poldrack-single-stim","174","195975","0.0-6.0-24.0","","<div></div>","32","1400","","","","","","","","","","","","","","","","","","","","",""
"","-1","-1","500","0","stop_change","fixation","poldrack-single-stim","175","196480","0.0-6.0-25.0","","<div class = centerbox><div class = fixation>+</div></div>","none","500","","","","","","","","","","","","","","","","","","","","",""
"","463","37","1850","0","stop_change","practice_stop_trial","stop-signal","176","198342","0.0-6.0-26.0","","<img class = center src='/static/experiments/stop_change/images/red_circle.png'></img>","37,39,90","850","red_circle","37","0","practice2","go","","250","go","850","","","","","","","","","","","",""
"","-1","-1","1400","0","stop_change","ITI","poldrack-single-stim","177","199749","0.0-6.0-27.0","","<div></div>","32","1400","","","","","","","","","","","","","","","","","","","","",""
"","-1","-1","500","0","stop_change","fixation","poldrack-single-stim","178","200252","0.0-6.0-28.0","","<div class = centerbox><div class = fixation>+</div></div>","none","500","","","","","","","","","","","","","","","","","","","","",""
"","815","90","1850","0","stop_change","practice_stop_trial","stop-signal","179","202115","0.0-6.0-29.0","","<img class = center src='/static/experiments/stop_change/images/turquoise_rhombus.png'></img>","37,39,90","850","turquoise_rhombus","39","0","practice2","go","","250","go","850","","","","","","","","","","","",""
"","-1","-1","1400","0","stop_change","ITI","poldrack-single-stim","180","203520","0.0-6.0-30.0","","<div></div>","32","1400","","","","","","","","","","","","","","","","","","","","",""
"","-1","-1","500","0","stop_change","fixation","poldrack-single-stim","181","204025","0.0-6.0-31.0","","<div class = centerbox><div class = fixation>+</div></div>","none","500","","","","","","","","","","","","","","","","","","","","",""
"","864","37","1850","0","stop_change","practice_stop_trial","stop-signal","182","205892","0.0-6.0-32.0","","<img class = center src='/static/experiments/stop_change/images/green_triangle.png'></img>","37,39,90","850","green_triangle","37","0","practice2","go","","250","go","850","","","","","","","","","","","",""
"","-1","-1","1400","0","stop_change","ITI","poldrack-single-stim","183","207298","0.0-6.0-33.0","","<div></div>","32","1400","","","","","","","","","","","","","","","","","","","","",""
"","-1","-1","500","0","stop_change","fixation","poldrack-single-stim","184","207802","0.0-6.0-34.0","","<div class = centerbox><div class = fixation>+</div></div>","none","500","","","","","","","","","","","","","","","","","","","","",""
"","544","37","1850","0","stop_change","practice_stop_trial","stop-signal","185","209666","0.0-6.0-35.0","","<img class = center src='/static/experiments/stop_change/images/red_circle.png'></img>","37,39,90","850","red_circle","37","0","practice2","go","","250","go","850","","","","","","","","","","","",""
"","-1","-1","1400","0","stop_change","ITI","poldrack-single-stim","186","211071","0.0-6.0-36.0","","<div></div>","32","1400","","","","","","","","","","","","","","","","","","","","",""
"","-1","-1","500","0","stop_change","fixation","poldrack-single-stim","187","211575","0.0-6.0-37.0","","<div class = centerbox><div class = fixation>+</div></div>","none","500","","","","","","","","","","","","","","","","","","","","",""
"","396","37","1850","0","stop_change","practice_stop_trial","stop-signal","188","213438","0.0-6.0-38.0","","<img class = center src='/static/experiments/stop_change/images/red_circle.png'></img>","37,39,90","850","red_circle","37","0","practice2","go","","250","go","850","","","","","","","","","","","",""
"","-1","-1","1400","0","stop_change","ITI","poldrack-single-stim","189","214843","0.0-6.0-39.0","","<div></div>","32","1400","","","","","","","","","","","","","","","","","","","","",""
"","-1","-1","500","0","stop_change","fixation","poldrack-single-stim","190","215348","0.0-6.0-40.0","","<div class = centerbox><div class = fixation>+</div></div>","none","500","","","","","","","","","","","","","","","","","","","","",""
"","495","39","1850","0","stop_change","practice_stop_trial","stop-signal","191","217213","0.0-6.0-41.0","","<img class = center src='/static/experiments/stop_change/images/brown_pentagon.png'></img>","37,39,90","850","brown_pentagon","39","0","practice2","go","","250","go","850","","","","","","","","","","","",""
"","-1","-1","1400","0","stop_change","ITI","poldrack-single-stim","192","218616","0.0-6.0-42.0","","<div></div>","32","1400","","","","","","","","","","","","","","","","","","","","",""
"","-1","-1","500","0","stop_change","fixation","poldrack-single-stim","193","219121","0.0-6.0-43.0","","<div class = centerbox><div class = fixation>+</div></div>","none","500","","","","","","","","","","","","","","","","","","","","",""
"","816","90","1850","0","stop_change","practice_stop_trial","stop-signal","194","220984","0.0-6.0-44.0","","<img class = center src='/static/experiments/stop_change/images/turquoise_rhombus.png'></img>","37,39,90","850","turquoise_rhombus","90","0","practice2","stop","purple","250","stop","850","<img class = center src='/static/experiments/stop_change/images/purple_stopSignal.png'></img>","","","","","","","","","","",""
"","-1","-1","1400","0","stop_change","ITI","poldrack-single-stim","195","222389","0.0-6.0-45.0","","<div></div>","32","1400","","","","","","","","","","","","","","","","","","","","",""
"","-1","-1","500","0","stop_change","fixation","poldrack-single-stim","196","222894","0.0-6.0-46.0","","<div class = centerbox><div class = fixation>+</div></div>","none","500","","","","","","","","","","","","","","","","","","","","",""
"","570","39","1850","0","stop_change","practice_stop_trial","stop-signal","197","224762","0.0-6.0-47.0","","<img class = center src='/static/experiments/stop_change/images/brown_pentagon.png'></img>","37,39,90","850","brown_pentagon","39","0","practice2","go","","250","go","850","","","","","","","","","","","",""
"","-1","-1","1400","0","stop_change","ITI","poldrack-single-stim","198","226167","0.0-6.0-48.0","","<div></div>","32","1400","","","","","","","","","","","","","","","","","","","","",""
"","-1","-1","500","0","stop_change","fixation","poldrack-single-stim","199","226671","0.0-6.0-49.0","","<div class = centerbox><div class = fixation>+</div></div>","none","500","","","","","","","","","","","","","","","","","","","","",""
"","428","39","1850","0","stop_change","practice_stop_trial","stop-signal","200","228534","0.0-6.0-50.0","","<img class = center src='/static/experiments/stop_change/images/brown_pentagon.png'></img>","37,39,90","850","brown_pentagon","90","0","practice2","stop","yellow","250","stop","850","<img class = center src='/static/experiments/stop_change/images/yellow_stopSignal.png'></img>","","","","","","","","","","",""
"","-1","-1","1400","0","stop_change","ITI","poldrack-single-stim","201","229939","0.0-6.0-51.0","","<div></div>","32","1400","","","","","","","","","","","","","","","","","","","","",""
"","-1","-1","500","0","stop_change","fixation","poldrack-single-stim","202","230445","0.0-6.0-52.0","","<div class = centerbox><div class = fixation>+</div></div>","none","500","","","","","","","","","","","","","","","","","","","","",""
"","451","39","1850","0","stop_change","practice_stop_trial","stop-signal","203","232312","0.0-6.0-53.0","","<img class = center src='/static/experiments/stop_change/images/brown_pentagon.png'></img>","37,39,90","850","brown_pentagon","39","0","practice2","go","","250","go","850","","","","","","","","","","","",""
"","-1","-1","1400","0","stop_change","ITI","poldrack-single-stim","204","233718","0.0-6.0-54.0","","<div></div>","32","1400","","","","","","","","","","","","","","","","","","","","",""
"","-1","-1","500","0","stop_change","fixation","poldrack-single-stim","205","234223","0.0-6.0-55.0","","<div class = centerbox><div class = fixation>+</div></div>","none","500","","","","","","","","","","","","","","","","","","","","",""
"","636","37","1850","0","stop_change","practice_stop_trial","stop-signal","206","236091","0.0-6.0-56.0","","<img class = center src='/static/experiments/stop_change/images/green_triangle.png'></img>","37,39,90","850","green_triangle","90","0","practice2","stop","purple","250","stop","850","<img class = center src='/static/experiments/stop_change/images/purple_stopSignal.png'></img>","","","","","","","","","","",""
"","-1","-1","1400","0","stop_change","ITI","poldrack-single-stim","207","237496","0.0-6.0-57.0","","<div></div>","32","1400","","","","","","","","","","","","","","","","","","","","",""
"","-1","-1","500","0","stop_change","fixation","poldrack-single-stim","208","238001","0.0-6.0-58.0","","<div class = centerbox><div class = fixation>+</div></div>","none","500","","","","","","","","","","","","","","","","","","","","",""
"","556","39","1850","0","stop_change","practice_stop_trial","stop-signal","209","239864","0.0-6.0-59.0","","<img class = center src='/static/experiments/stop_change/images/brown_pentagon.png'></img>","37,39,90","850","brown_pentagon","39","0","practice2","go","","250","go","850","","","","","","","","","","","",""
"","-1","-1","1400","0","stop_change","ITI","poldrack-single-stim","210","241269","0.0-6.0-60.0","","<div></div>","32","1400","","","","","","","","","","","","","","","","","","","","",""
"","-1","-1","500","0","stop_change","fixation","poldrack-single-stim","211","241774","0.0-6.0-61.0","","<div class = centerbox><div class = fixation>+</div></div>","none","500","","","","","","","","","","","","","","","","","","","","",""
"","493","39","1850","0","stop_change","practice_stop_trial","stop-signal","212","243637","0.0-6.0-62.0","","<img class = center src='/static/experiments/stop_change/images/turquoise_rhombus.png'></img>","37,39,90","850","turquoise_rhombus","39","0","practice2","go","","250","go","850","","","","","","","","","","","",""
"","-1","-1","1400","0","stop_change","ITI","poldrack-single-stim","213","245042","0.0-6.0-63.0","","<div></div>","32","1400","","","","","","","","","","","","","","","","","","","","",""
"","-1","-1","500","0","stop_change","fixation","poldrack-single-stim","214","245546","0.0-6.0-64.0","","<div class = centerbox><div class = fixation>+</div></div>","none","500","","","","","","","","","","","","","","","","","","","","",""
"","390","37","1850","0","stop_change","practice_stop_trial","stop-signal","215","247414","0.0-6.0-65.0","","<img class = center src='/static/experiments/stop_change/images/red_circle.png'></img>","37,39,90","850","red_circle","90","0","practice2","stop","pink","250","stop","850","<img class = center src='/static/experiments/stop_change/images/pink_stopSignal.png'></img>","","","","","","","","","","",""
"","-1","-1","1400","0","stop_change","ITI","poldrack-single-stim","216","248820","0.0-6.0-66.0","","<div></div>","32","1400","","","","","","","","","","","","","","","","","","","","",""
"","-1","-1","500","0","stop_change","fixation","poldrack-single-stim","217","249324","0.0-6.0-67.0","","<div class = centerbox><div class = fixation>+</div></div>","none","500","","","","","","","","","","","","","","","","","","","","",""
"","789","90","1850","0","stop_change","practice_stop_trial","stop-signal","218","251188","0.0-6.0-68.0","","<img class = center src='/static/experiments/stop_change/images/brown_pentagon.png'></img>","37,39,90","850","brown_pentagon","90","0","practice2","stop","pink","250","stop","850","<img class = center src='/static/experiments/stop_change/images/pink_stopSignal.png'></img>","","","","","","","","","","",""
"","-1","-1","1400","0","stop_change","ITI","poldrack-single-stim","219","252593","0.0-6.0-69.0","","<div></div>","32","1400","","","","","","","","","","","","","","","","","","","","",""
"","-1","-1","500","0","stop_change","fixation","poldrack-single-stim","220","253098","0.0-6.0-70.0","","<div class = centerbox><div class = fixation>+</div></div>","none","500","","","","","","","","","","","","","","","","","","","","",""
"","381","37","1850","0","stop_change","practice_stop_trial","stop-signal","221","254966","0.0-6.0-71.0","","<img class = center src='/static/experiments/stop_change/images/green_triangle.png'></img>","37,39,90","850","green_triangle","37","0","practice2","go","","250","go","850","","","","","","","","","","","",""
"","-1","-1","1400","0","stop_change","ITI","poldrack-single-stim","222","256371","0.0-6.0-72.0","","<div></div>","32","1400","","","","","","","","","","","","","","","","","","","","",""
"","-1","-1","500","0","stop_change","fixation","poldrack-single-stim","223","256876","0.0-6.0-73.0","","<div class = centerbox><div class = fixation>+</div></div>","none","500","","","","","","","","","","","","","","","","","","","","",""
"","482","37","1850","0","stop_change","practice_stop_trial","stop-signal","224","258744","0.0-6.0-74.0","","<img class = center src='/static/experiments/stop_change/images/red_circle.png'></img>","37,39,90","850","red_circle","90","0","practice2","stop","yellow","250","stop","850","<img class = center src='/static/experiments/stop_change/images/yellow_stopSignal.png'></img>","","","","","","","","","","",""
"","-1","-1","1400","0","stop_change","ITI","poldrack-single-stim","225","260150","0.0-6.0-75.0","","<div></div>","32","1400","","","","","","","","","","","","","","","","","","","","",""
"","-1","-1","500","0","stop_change","fixation","poldrack-single-stim","226","260655","0.0-6.0-76.0","","<div class = centerbox><div class = fixation>+</div></div>","none","500","","","","","","","","","","","","","","","","","","","","",""
"","654","90","1850","0","stop_change","practice_stop_trial","stop-signal","227","262517","0.0-6.0-77.0","","<img class = center src='/static/experiments/stop_change/images/green_triangle.png'></img>","37,39,90","850","green_triangle","37","0","practice2","go","","250","go","850","","","","","","","","","","","",""
"","-1","-1","1400","0","stop_change","ITI","poldrack-single-stim","228","263922","0.0-6.0-78.0","","<div></div>","32","1400","","","","","","","","","","","","","","","","","","","","",""
"","-1","-1","500","0","stop_change","fixation","poldrack-single-stim","229","264426","0.0-6.0-79.0","","<div class = centerbox><div class = fixation>+</div></div>","none","500","","","","","","","","","","","","","","","","","","","","",""
"","409","37","1850","0","stop_change","practice_stop_trial","stop-signal","230","266289","0.0-6.0-80.0","","<img class = center src='/static/experiments/stop_change/images/green_triangle.png'></img>","37,39,90","850","green_triangle","37","0","practice2","go","","250","go","850","","","","","","","","","","","",""
"","-1","-1","1400","0","stop_change","ITI","poldrack-single-stim","231","267695","0.0-6.0-81.0","","<div></div>","32","1400","","","","","","","","","","","","","","","","","","","","",""
"","-1","-1","500","0","stop_change","fixation","poldrack-single-stim","232","268200","0.0-6.0-82.0","","<div class = centerbox><div class = fixation>+</div></div>","none","500","","","","","","","","","","","","","","","","","","","","",""
"","430","37","1850","0","stop_change","practice_stop_trial","stop-signal","233","270063","0.0-6.0-83.0","","<img class = center src='/static/experiments/stop_change/images/red_circle.png'></img>","37,39,90","850","red_circle","37","0","practice2","go","","250","go","850","","","","","","","","","","","",""
"","-1","-1","1400","0","stop_change","ITI","poldrack-single-stim","234","271467","0.0-6.0-84.0","","<div></div>","32","1400","","","","","","","","","","","","","","","","","","","","",""
"","-1","-1","500","0","stop_change","fixation","poldrack-single-stim","235","271972","0.0-6.0-85.0","","<div class = centerbox><div class = fixation>+</div></div>","none","500","","","","","","","","","","","","","","","","","","","","",""
"","524","39","1850","0","stop_change","practice_stop_trial","stop-signal","236","273840","0.0-6.0-86.0","","<img class = center src='/static/experiments/stop_change/images/turquoise_rhombus.png'></img>","37,39,90","850","turquoise_rhombus","39","0","practice2","go","","250","go","850","","","","","","","","","","","",""
"","-1","-1","1400","0","stop_change","ITI","poldrack-single-stim","237","275246","0.0-6.0-87.0","","<div></div>","32","1400","","","","","","","","","","","","","","","","","","","","",""
"","-1","-1","500","0","stop_change","fixation","poldrack-single-stim","238","275752","0.0-6.0-88.0","","<div class = centerbox><div class = fixation>+</div></div>","none","500","","","","","","","","","","","","","","","","","","","","",""
"","518","37","1850","0","stop_change","practice_stop_trial","stop-signal","239","277619","0.0-6.0-89.0","","<img class = center src='/static/experiments/stop_change/images/red_circle.png'></img>","37,39,90","850","red_circle","37","0","practice2","go","","250","go","850","","","","","","","","","","","",""
"","-1","-1","1400","0","stop_change","ITI","poldrack-single-stim","240","279024","0.0-6.0-90.0","","<div></div>","32","1400","","","","","","","","","","","","","","","","","","","","",""
"","-1","-1","500","0","stop_change","fixation","poldrack-single-stim","241","279529","0.0-6.0-91.0","","<div class = centerbox><div class = fixation>+</div></div>","none","500","","","","","","","","","","","","","","","","","","","","",""
"","469","37","1850","0","stop_change","practice_stop_trial","stop-signal","242","281398","0.0-6.0-92.0","","<img class = center src='/static/experiments/stop_change/images/green_triangle.png'></img>","37,39,90","850","green_triangle","37","0","practice2","go","","250","go","850","","","","","","","","","","","",""
"","-1","-1","1400","0","stop_change","ITI","poldrack-single-stim","243","282803","0.0-6.0-93.0","","<div></div>","32","1400","","","","","","","","","","","","","","","","","","","","",""
"","-1","-1","500","0","stop_change","fixation","poldrack-single-stim","244","283308","0.0-6.0-94.0","","<div class = centerbox><div class = fixation>+</div></div>","none","500","","","","","","","","","","","","","","","","","","","","",""
"","548","39","1850","0","stop_change","practice_stop_trial","stop-signal","245","285175","0.0-6.0-95.0","","<img class = center src='/static/experiments/stop_change/images/turquoise_rhombus.png'></img>","37,39,90","850","turquoise_rhombus","39","0","practice2","go","","250","go","850","","","","","","","","","","","",""
"","-1","-1","1400","0","stop_change","ITI","poldrack-single-stim","246","286580","0.0-6.0-96.0","","<div></div>","32","1400","","","","","","","","","","","","","","","","","","","","",""
"","-1","-1","500","0","stop_change","fixation","poldrack-single-stim","247","287085","0.0-6.0-97.0","","<div class = centerbox><div class = fixation>+</div></div>","none","500","","","","","","","","","","","","","","","","","","","","",""
"","869","90","1850","0","stop_change","practice_stop_trial","stop-signal","248","288953","0.0-6.0-98.0","","<img class = center src='/static/experiments/stop_change/images/brown_pentagon.png'></img>","37,39,90","850","brown_pentagon","90","0","practice2","stop","purple","250","stop","850","<img class = center src='/static/experiments/stop_change/images/purple_stopSignal.png'></img>","","","","","","","","","","",""
"","-1","-1","1400","0","stop_change","ITI","poldrack-single-stim","249","290360","0.0-6.0-99.0","","<div></div>","32","1400","","","","","","","","","","","","","","","","","","","","",""
"","-1","-1","500","0","stop_change","fixation","poldrack-single-stim","250","290864","0.0-6.0-100.0","","<div class = centerbox><div class = fixation>+</div></div>","none","500","","","","","","","","","","","","","","","","","","","","",""
"","680","39","1850","0","stop_change","practice_stop_trial","stop-signal","251","292727","0.0-6.0-101.0","","<img class = center src='/static/experiments/stop_change/images/turquoise_rhombus.png'></img>","37,39,90","850","turquoise_rhombus","39","0","practice2","go","","250","go","850","","","","","","","","","","","",""
"","-1","-1","1400","0","stop_change","ITI","poldrack-single-stim","252","294131","0.0-6.0-102.0","","<div></div>","32","1400","","","","","","","","","","","","","","","","","","","","",""
"","-1","-1","500","0","stop_change","fixation","poldrack-single-stim","253","294637","0.0-6.0-103.0","","<div class = centerbox><div class = fixation>+</div></div>","none","500","","","","","","","","","","","","","","","","","","","","",""
"","505","37","1850","0","stop_change","practice_stop_trial","stop-signal","254","296500","0.0-6.0-104.0","","<img class = center src='/static/experiments/stop_change/images/red_circle.png'></img>","37,39,90","850","red_circle","37","0","practice2","go","","250","go","850","","","","","","","","","","","",""
"","-1","-1","1400","0","stop_change","ITI","poldrack-single-stim","255","297905","0.0-6.0-105.0","","<div></div>","32","1400","","","","","","","","","","","","","","","","","","","","",""
"","-1","-1","500","0","stop_change","fixation","poldrack-single-stim","256","298410","0.0-6.0-106.0","","<div class = centerbox><div class = fixation>+</div></div>","none","500","","","","","","","","","","","","","","","","","","","","",""
"","761","39","1850","0","stop_change","practice_stop_trial","stop-signal","257","300272","0.0-6.0-107.0","","<img class = center src='/static/experiments/stop_change/images/turquoise_rhombus.png'></img>","37,39,90","850","turquoise_rhombus","39","0","practice2","go","","250","go","850","","","","","","","","","","","",""
"","-1","-1","1400","0","stop_change","ITI","poldrack-single-stim","258","301677","0.0-6.0-108.0","","<div></div>","32","1400","","","","","","","","","","","","","","","","","","","","",""
"","-1","-1","500","0","stop_change","fixation","poldrack-single-stim","259","302182","0.0-6.0-109.0","","<div class = centerbox><div class = fixation>+</div></div>","none","500","","","","","","","","","","","","","","","","","","","","",""
"","790","90","1850","0","stop_change","practice_stop_trial","stop-signal","260","304045","0.0-6.0-110.0","","<img class = center src='/static/experiments/stop_change/images/turquoise_rhombus.png'></img>","37,39,90","850","turquoise_rhombus","90","0","practice2","stop","yellow","250","stop","850","<img class = center src='/static/experiments/stop_change/images/yellow_stopSignal.png'></img>","","","","","","","","","","",""
"","-1","-1","1400","0","stop_change","ITI","poldrack-single-stim","261","305450","0.0-6.0-111.0","","<div></div>","32","1400","","","","","","","","","","","","","","","","","","","","",""
"","-1","-1","500","0","stop_change","fixation","poldrack-single-stim","262","305955","0.0-6.0-112.0","","<div class = centerbox><div class = fixation>+</div></div>","none","500","","","","","","","","","","","","","","","","","","","","",""
"","620","39","1850","0","stop_change","practice_stop_trial","stop-signal","263","307822","0.0-6.0-113.0","","<img class = center src='/static/experiments/stop_change/images/turquoise_rhombus.png'></img>","37,39,90","850","turquoise_rhombus","39","0","practice2","go","","250","go","850","","","","","","","","","","","",""
"","-1","-1","1400","0","stop_change","ITI","poldrack-single-stim","264","309228","0.0-6.0-114.0","","<div></div>","32","1400","","","","","","","","","","","","","","","","","","","","",""
"","-1","-1","500","0","stop_change","fixation","poldrack-single-stim","265","309733","0.0-6.0-115.0","","<div class = centerbox><div class = fixation>+</div></div>","none","500","","","","","","","","","","","","","","","","","","","","",""
"","716","90","1850","0","stop_change","practice_stop_trial","stop-signal","266","311596","0.0-6.0-116.0","","<img class = center src='/static/experiments/stop_change/images/brown_pentagon.png'></img>","37,39,90","850","brown_pentagon","90","0","practice2","stop","blue","250","stop","850","<img class = center src='/static/experiments/stop_change/images/blue_stopSignal.png'></img>","","","","","","","","","","",""
"","-1","-1","1400","0","stop_change","ITI","poldrack-single-stim","267","313001","0.0-6.0-117.0","","<div></div>","32","1400","","","","","","","","","","","","","","","","","","","","",""
"","-1","-1","500","0","stop_change","fixation","poldrack-single-stim","268","313505","0.0-6.0-118.0","","<div class = centerbox><div class = fixation>+</div></div>","none","500","","","","","","","","","","","","","","","","","","","","",""
"","457","39","1850","0","stop_change","practice_stop_trial","stop-signal","269","315370","0.0-6.0-119.0","","<img class = center src='/static/experiments/stop_change/images/brown_pentagon.png'></img>","37,39,90","850","brown_pentagon","39","0","practice2","go","","250","go","850","","","","","","","","","","","",""
"","-1","-1","1400","0","stop_change","ITI","poldrack-single-stim","270","316774","0.0-6.0-120.0","","<div></div>","32","1400","","","","","","","","","","","","","","","","","","","","",""
"","-1","-1","500","0","stop_change","fixation","poldrack-single-stim","271","317278","0.0-6.0-121.0","","<div class = centerbox><div class = fixation>+</div></div>","none","500","","","","","","","","","","","","","","","","","","","","",""
"","469","39","1850","0","stop_change","practice_stop_trial","stop-signal","272","319146","0.0-6.0-122.0","","<img class = center src='/static/experiments/stop_change/images/brown_pentagon.png'></img>","37,39,90","850","brown_pentagon","39","0","practice2","go","","250","go","850","","","","","","","","","","","",""
"","-1","-1","1400","0","stop_change","ITI","poldrack-single-stim","273","320552","0.0-6.0-123.0","","<div></div>","32","1400","","","","","","","","","","","","","","","","","","","","",""
"","-1","-1","500","0","stop_change","fixation","poldrack-single-stim","274","321057","0.0-6.0-124.0","","<div class = centerbox><div class = fixation>+</div></div>","none","500","","","","","","","","","","","","","","","","","","","","",""
"","431","39","1850","0","stop_change","practice_stop_trial","stop-signal","275","322924","0.0-6.0-125.0","","<img class = center src='/static/experiments/stop_change/images/red_circle.png'></img>","37,39,90","850","red_circle","90","0","practice2","stop","purple","250","stop","850","<img class = center src='/static/experiments/stop_change/images/purple_stopSignal.png'></img>","","","","","","","","","","",""
"","-1","-1","1400","0","stop_change","ITI","poldrack-single-stim","276","324331","0.0-6.0-126.0","","<div></div>","32","1400","","","","","","","","","","","","","","","","","","","","",""
"","-1","-1","500","0","stop_change","fixation","poldrack-single-stim","277","324836","0.0-6.0-127.0","","<div class = centerbox><div class = fixation>+</div></div>","none","500","","","","","","","","","","","","","","","","","","","","",""
"","625","37","1850","0","stop_change","practice_stop_trial","stop-signal","278","326703","0.0-6.0-128.0","","<img class = center src='/static/experiments/stop_change/images/green_triangle.png'></img>","37,39,90","850","green_triangle","37","0","practice2","go","","250","go","850","","","","","","","","","","","",""
"","-1","-1","1400","0","stop_change","ITI","poldrack-single-stim","279","328109","0.0-6.0-129.0","","<div></div>","32","1400","","","","","","","","","","","","","","","","","","","","",""
"","-1","-1","500","0","stop_change","fixation","poldrack-single-stim","280","328614","0.0-6.0-130.0","","<div class = centerbox><div class = fixation>+</div></div>","none","500","","","","","","","","","","","","","","","","","","","","",""
"","402","37","1850","0","stop_change","practice_stop_trial","stop-signal","281","330477","0.0-6.0-131.0","","<img class = center src='/static/experiments/stop_change/images/green_triangle.png'></img>","37,39,90","850","green_triangle","37","0","practice2","go","","250","go","850","","","","","","","","","","","",""
"","-1","-1","1400","0","stop_change","ITI","poldrack-single-stim","282","331881","0.0-6.0-132.0","","<div></div>","32","1400","","","","","","","","","","","","","","","","","","","","",""
"","-1","-1","500","0","stop_change","fixation","poldrack-single-stim","283","332386","0.0-6.0-133.0","","<div class = centerbox><div class = fixation>+</div></div>","none","500","","","","","","","","","","","","","","","","","","","","",""
"","383","37","1850","0","stop_change","practice_stop_trial","stop-signal","284","334249","0.0-6.0-134.0","","<img class = center src='/static/experiments/stop_change/images/green_triangle.png'></img>","37,39,90","850","green_triangle","90","0","practice2","stop","pink","250","stop","850","<img class = center src='/static/experiments/stop_change/images/pink_stopSignal.png'></img>","","","","","","","","","","",""
"","-1","-1","1400","0","stop_change","ITI","poldrack-single-stim","285","335656","0.0-6.0-135.0","","<div></div>","32","1400","","","","","","","","","","","","","","","","","","","","",""
"","-1","-1","500","0","stop_change","fixation","poldrack-single-stim","286","336159","0.0-6.0-136.0","","<div class = centerbox><div class = fixation>+</div></div>","none","500","","","","","","","","","","","","","","","","","","","","",""
"","504","39","1850","0","stop_change","practice_stop_trial","stop-signal","287","338026","0.0-6.0-137.0","","<img class = center src='/static/experiments/stop_change/images/brown_pentagon.png'></img>","37,39,90","850","brown_pentagon","39","0","practice2","go","","250","go","850","","","","","","","","","","","",""
"","-1","-1","1400","0","stop_change","ITI","poldrack-single-stim","288","339433","0.0-6.0-138.0","","<div></div>","32","1400","","","","","","","","","","","","","","","","","","","","",""
"","-1","-1","500","0","stop_change","fixation","poldrack-single-stim","289","339938","0.0-6.0-139.0","","<div class = centerbox><div class = fixation>+</div></div>","none","500","","","","","","","","","","","","","","","","","","","","",""
"","811","90","1850","0","stop_change","practice_stop_trial","stop-signal","290","341805","0.0-6.0-140.0","","<img class = center src='/static/experiments/stop_change/images/turquoise_rhombus.png'></img>","37,39,90","850","turquoise_rhombus","90","0","practice2","stop","pink","250","stop","850","<img class = center src='/static/experiments/stop_change/images/pink_stopSignal.png'></img>","","","","","","","","","","",""
"","-1","-1","1400","0","stop_change","ITI","poldrack-single-stim","291","343211","0.0-6.0-141.0","","<div></div>","32","1400","","","","","","","","","","","","","","","","","","","","",""
"","-1","-1","500","0","stop_change","fixation","poldrack-single-stim","292","343716","0.0-6.0-142.0","","<div class = centerbox><div class = fixation>+</div></div>","none","500","","","","","","","","","","","","","","","","","","","","",""
"","540","37","1850","0","stop_change","practice_stop_trial","stop-signal","293","345585","0.0-6.0-143.0","","<img class = center src='/static/experiments/stop_change/images/turquoise_rhombus.png'></img>","37,39,90","850","turquoise_rhombus","90","0","practice2","stop","blue","250","stop","850","<img class = center src='/static/experiments/stop_change/images/blue_stopSignal.png'></img>","","","","","","","","","","",""
"","-1","-1","1400","0","stop_change","ITI","poldrack-single-stim","294","346989","0.0-6.0-144.0","","<div></div>","32","1400","","","","","","","","","","","","","","","","","","","","",""
"","4644","13","4644","0","stop_change","practice-no-stop-feedback","poldrack-single-stim","295","351637","0.0-7.0","","<div class = centerbox><p class = block-text><br>Please take this time to read your feedback and to take a short break! Press enter to continue</p><p class = block-text><strong>Average reaction time:  548 ms. 	Accuracy: 79%</strong></p><p class = block-text>Done with this practice.</p></div>","13","4644","","","","","","","","","","","","","","","","","","","","",""
"","7009","13","7009","0","stop_change","main_stop_intro_phase3","poldrack-single-stim","296","358648","0.0-8.0","","<div class = centerbox><p class = block-text>We will now start the main phase of the experiment.<br><br>These trials are the same as the trials that you have just completed. <br><br>The rules for each shape are as follows:  <br><ul list-text><li>circle: left key</li><li>triangle: left key</li><li>rhombus: right key</li><li>pentagon: right key</li></ul></p><p class = block-text>Remember these rules before you proceed, as they will no longer be presented during the trial.</p><p class = block-text>If a star appears, the correct response on that trial is the Z key.</p><p class = block-text>Press <strong> enter</strong> to begin.</p></div>","13","7009","","","","","","","","","","","","","","","","","","","","",""
"","507","13","507","0","stop_change","practice-no-stop-feedback","poldrack-single-stim","297","359156","0.0-9.0-0.0","","<div class = centerbox><p class = block-text>We will now start the test session. Please concentrate on responding quickly and accurately to each stimuli.</p></div>","13","507","","","","","","","","","","","","","","","","","","","","",""
"","-1","-1","500","0","stop_change","fixation","poldrack-single-stim","298","359659","0.0-9.0-1.0","","<div class = centerbox><div class = fixation>+</div></div>","none","500","","","","","","","","","","","","","","","","","","","","",""
"","792","90","1850","0","stop_change","test_trial","stop-signal","299","361516","0.0-9.0-2.0","","<img class = center src='/static/experiments/stop_change/images/brown_pentagon.png'></img>","37,39,90","850","brown_pentagon","90","0","test","stop","pink","250","stop","850","<img class = center src='/static/experiments/stop_change/images/pink_stopSignal.png'></img>","1","","","","","","","","","",""
"","-1","-1","1400","0","stop_change","ITI","poldrack-single-stim","300","362921","0.0-9.0-3.0","","<div></div>","32","1400","","","","","","","","","","","","","","","","","","","","",""
"","-1","-1","500","0","stop_change","fixation","poldrack-single-stim","301","363425","0.0-9.0-4.0","","<div class = centerbox><div class = fixation>+</div></div>","none","500","","","","","","","","","","","","","","","","","","","","",""
"","530","37","1850","0","stop_change","test_trial","stop-signal","302","365283","0.0-9.0-5.0","","<img class = center src='/static/experiments/stop_change/images/turquoise_rhombus.png'></img>","37,39,90","850","turquoise_rhombus","39","0","test","go","","300","go","850","","","0","","","","","","","","",""
"","-1","-1","1400","0","stop_change","ITI","poldrack-single-stim","303","366688","0.0-9.0-6.0","","<div></div>","32","1400","","","","","","","","","","","","","","","","","","","","",""
"","-1","-1","500","0","stop_change","fixation","poldrack-single-stim","304","367193","0.0-9.0-7.0","","<div class = centerbox><div class = fixation>+</div></div>","none","500","","","","","","","","","","","","","","","","","","","","",""
"","602","39","1850","0","stop_change","test_trial","stop-signal","305","369050","0.0-9.0-8.0","","<img class = center src='/static/experiments/stop_change/images/turquoise_rhombus.png'></img>","37,39,90","850","turquoise_rhombus","39","0","test","go","","300","go","850","","","1","","","","","","","","",""
"","-1","-1","1400","0","stop_change","ITI","poldrack-single-stim","306","370455","0.0-9.0-9.0","","<div></div>","32","1400","","","","","","","","","","","","","","","","","","","","",""
"","-1","-1","500","0","stop_change","fixation","poldrack-single-stim","307","370960","0.0-9.0-10.0","","<div class = centerbox><div class = fixation>+</div></div>","none","500","","","","","","","","","","","","","","","","","","","","",""
"","389","37","1850","0","stop_change","test_trial","stop-signal","308","372822","0.0-9.0-11.0","","<img class = center src='/static/experiments/stop_change/images/red_circle.png'></img>","37,39,90","850","red_circle","37","0","test","go","","300","go","850","","","1","","","","","","","","",""
"","-1","-1","1400","0","stop_change","ITI","poldrack-single-stim","309","374228","0.0-9.0-12.0","","<div></div>","32","1400","","","","","","","","","","","","","","","","","","","","",""
"","-1","-1","500","0","stop_change","fixation","poldrack-single-stim","310","374733","0.0-9.0-13.0","","<div class = centerbox><div class = fixation>+</div></div>","none","500","","","","","","","","","","","","","","","","","","","","",""
"","629","39","1850","0","stop_change","test_trial","stop-signal","311","376594","0.0-9.0-14.0","","<img class = center src='/static/experiments/stop_change/images/brown_pentagon.png'></img>","37,39,90","850","brown_pentagon","39","0","test","go","","300","go","850","","","1","","","","","","","","",""
"","-1","-1","1400","0","stop_change","ITI","poldrack-single-stim","312","378000","0.0-9.0-15.0","","<div></div>","32","1400","","","","","","","","","","","","","","","","","","","","",""
"","-1","-1","500","0","stop_change","fixation","poldrack-single-stim","313","378505","0.0-9.0-16.0","","<div class = centerbox><div class = fixation>+</div></div>","none","500","","","","","","","","","","","","","","","","","","","","",""
"","483","39","1850","0","stop_change","test_trial","stop-signal","314","380369","0.0-9.0-17.0","","<img class = center src='/static/experiments/stop_change/images/turquoise_rhombus.png'></img>","37,39,90","850","turquoise_rhombus","39","0","test","go","","300","go","850","","","1","","","","","","","","",""
"","-1","-1","1400","0","stop_change","ITI","poldrack-single-stim","315","381772","0.0-9.0-18.0","","<div></div>","32","1400","","","","","","","","","","","","","","","","","","","","",""
"","-1","-1","500","0","stop_change","fixation","poldrack-single-stim","316","382278","0.0-9.0-19.0","","<div class = centerbox><div class = fixation>+</div></div>","none","500","","","","","","","","","","","","","","","","","","","","",""
"","631","37","1850","0","stop_change","test_trial","stop-signal","317","384141","0.0-9.0-20.0","","<img class = center src='/static/experiments/stop_change/images/red_circle.png'></img>","37,39,90","850","red_circle","37","0","test","go","","300","go","850","","","1","","","","","","","","",""
"","-1","-1","1400","0","stop_change","ITI","poldrack-single-stim","318","385546","0.0-9.0-21.0","","<div></div>","32","1400","","","","","","","","","","","","","","","","","","","","",""
"","-1","-1","500","0","stop_change","fixation","poldrack-single-stim","319","386050","0.0-9.0-22.0","","<div class = centerbox><div class = fixation>+</div></div>","none","500","","","","","","","","","","","","","","","","","","","","",""
"","405","37","1850","0","stop_change","test_trial","stop-signal","320","387913","0.0-9.0-23.0","","<img class = center src='/static/experiments/stop_change/images/red_circle.png'></img>","37,39,90","850","red_circle","37","0","test","go","","300","go","850","","","1","","","","","","","","",""
"","-1","-1","1400","0","stop_change","ITI","poldrack-single-stim","321","389317","0.0-9.0-24.0","","<div></div>","32","1400","","","","","","","","","","","","","","","","","","","","",""
"","-1","-1","500","0","stop_change","fixation","poldrack-single-stim","322","389823","0.0-9.0-25.0","","<div class = centerbox><div class = fixation>+</div></div>","none","500","","","","","","","","","","","","","","","","","","","","",""
"","698","37","1850","0","stop_change","test_trial","stop-signal","323","391688","0.0-9.0-26.0","","<img class = center src='/static/experiments/stop_change/images/green_triangle.png'></img>","37,39,90","850","green_triangle","37","0","test","go","","300","go","850","","","1","","","","","","","","",""
"","-1","-1","1400","0","stop_change","ITI","poldrack-single-stim","324","393091","0.0-9.0-27.0","","<div></div>","32","1400","","","","","","","","","","","","","","","","","","","","",""
"","-1","-1","500","0","stop_change","fixation","poldrack-single-stim","325","393596","0.0-9.0-28.0","","<div class = centerbox><div class = fixation>+</div></div>","none","500","","","","","","","","","","","","","","","","","","","","",""
"","498","39","1850","0","stop_change","test_trial","stop-signal","326","395463","0.0-9.0-29.0","","<img class = center src='/static/experiments/stop_change/images/brown_pentagon.png'></img>","37,39,90","850","brown_pentagon","90","0","test","stop","yellow","300","stop","850","<img class = center src='/static/experiments/stop_change/images/yellow_stopSignal.png'></img>","0","","","","","","","","","",""
"","-1","-1","1400","0","stop_change","ITI","poldrack-single-stim","327","396869","0.0-9.0-30.0","","<div></div>","32","1400","","","","","","","","","","","","","","","","","","","","",""
"","-1","-1","500","0","stop_change","fixation","poldrack-single-stim","328","397374","0.0-9.0-31.0","","<div class = centerbox><div class = fixation>+</div></div>","none","500","","","","","","","","","","","","","","","","","","","","",""
"","624","39","1850","0","stop_change","test_trial","stop-signal","329","399237","0.0-9.0-32.0","","<img class = center src='/static/experiments/stop_change/images/turquoise_rhombus.png'></img>","37,39,90","850","turquoise_rhombus","39","0","test","go","","250","go","850","","","1","","","","","","","","",""
"","-1","-1","1400","0","stop_change","ITI","poldrack-single-stim","330","400642","0.0-9.0-33.0","","<div></div>","32","1400","","","","","","","","","","","","","","","","","","","","",""
"","-1","-1","500","0","stop_change","fixation","poldrack-single-stim","331","401147","0.0-9.0-34.0","","<div class = centerbox><div class = fixation>+</div></div>","none","500","","","","","","","","","","","","","","","","","","","","",""
"","686","90","1850","0","stop_change","test_trial","stop-signal","332","403015","0.0-9.0-35.0","","<img class = center src='/static/experiments/stop_change/images/turquoise_rhombus.png'></img>","37,39,90","850","turquoise_rhombus","90","0","test","stop","pink","250","stop","850","<img class = center src='/static/experiments/stop_change/images/pink_stopSignal.png'></img>","1","","","","","","","","","",""
"","-1","-1","1400","0","stop_change","ITI","poldrack-single-stim","333","404420","0.0-9.0-36.0","","<div></div>","32","1400","","","","","","","","","","","","","","","","","","","","",""
"","2032","13","2032","0","stop_change","practice-no-stop-feedback","poldrack-single-stim","334","406458","0.0-9.1-0.1","","<div class = centerbox><p class = block-text><br>Please take this time to read your feedback and to take a short break! Press enter to continue</p><p class = block-text><strong>Average reaction time:  555 ms. Accuracy: 83%</strong></p></div>","13","2032","","","","","","","","","","","","","","","","","","","","",""
"","-1","-1","500","0","stop_change","fixation","poldrack-single-stim","335","406962","0.0-9.1-1.1","","<div class = centerbox><div class = fixation>+</div></div>","none","500","","","","","","","","","","","","","","","","","","","","",""
"","664","39","1850","0","stop_change","test_trial","stop-signal","336","408819","0.0-9.1-2.1","","<img class = center src='/static/experiments/stop_change/images/brown_pentagon.png'></img>","37,39,90","850","brown_pentagon","39","1","test","go","","300","go","850","","","1","","","","","","","","",""
"","-1","-1","1400","0","stop_change","ITI","poldrack-single-stim","337","410226","0.0-9.1-3.1","","<div></div>","32","1400","","","","","","","","","","","","","","","","","","","","",""
"","-1","-1","500","0","stop_change","fixation","poldrack-single-stim","338","410729","0.0-9.1-4.1","","<div class = centerbox><div class = fixation>+</div></div>","none","500","","","","","","","","","","","","","","","","","","","","",""
"","555","39","1850","0","stop_change","test_trial","stop-signal","339","412586","0.0-9.1-5.1","","<img class = center src='/static/experiments/stop_change/images/green_triangle.png'></img>","37,39,90","850","green_triangle","37","1","test","go","","300","go","850","","","0","","","","","","","","",""
"","-1","-1","1400","0","stop_change","ITI","poldrack-single-stim","340","413991","0.0-9.1-6.1","","<div></div>","32","1400","","","","","","","","","","","","","","","","","","","","",""
"","-1","-1","500","0","stop_change","fixation","poldrack-single-stim","341","414496","0.0-9.1-7.1","","<div class = centerbox><div class = fixation>+</div></div>","none","500","","","","","","","","","","","","","","","","","","","","",""
"","562","39","1850","0","stop_change","test_trial","stop-signal","342","416353","0.0-9.1-8.1","","<img class = center src='/static/experiments/stop_change/images/turquoise_rhombus.png'></img>","37,39,90","850","turquoise_rhombus","90","1","test","stop","yellow","300","stop","850","<img class = center src='/static/experiments/stop_change/images/yellow_stopSignal.png'></img>","0","","","","","","","","","",""
"","-1","-1","1400","0","stop_change","ITI","poldrack-single-stim","343","417758","0.0-9.1-9.1","","<div></div>","32","1400","","","","","","","","","","","","","","","","","","","","",""
"","-1","-1","500","0","stop_change","fixation","poldrack-single-stim","344","418262","0.0-9.1-10.1","","<div class = centerbox><div class = fixation>+</div></div>","none","500","","","","","","","","","","","","","","","","","","","","",""
"","689","90","1850","0","stop_change","test_trial","stop-signal","345","420120","0.0-9.1-11.1","","<img class = center src='/static/experiments/stop_change/images/red_circle.png'></img>","37,39,90","850","red_circle","90","1","test","stop","purple","250","stop","850","<img class = center src='/static/experiments/stop_change/images/purple_stopSignal.png'></img>","1","","","","","","","","","",""
"","-1","-1","1400","0","stop_change","ITI","poldrack-single-stim","346","421525","0.0-9.1-12.1","","<div></div>","32","1400","","","","","","","","","","","","","","","","","","","","",""
"","-1","-1","500","0","stop_change","fixation","poldrack-single-stim","347","422031","0.0-9.1-13.1","","<div class = centerbox><div class = fixation>+</div></div>","none","500","","","","","","","","","","","","","","","","","","","","",""
"","593","39","1850","0","stop_change","test_trial","stop-signal","348","423891","0.0-9.1-14.1","","<img class = center src='/static/experiments/stop_change/images/turquoise_rhombus.png'></img>","37,39,90","850","turquoise_rhombus","39","1","test","go","","300","go","850","","","1","","","","","","","","",""
"","-1","-1","1400","0","stop_change","ITI","poldrack-single-stim","349","425296","0.0-9.1-15.1","","<div></div>","32","1400","","","","","","","","","","","","","","","","","","","","",""
"","-1","-1","500","0","stop_change","fixation","poldrack-single-stim","350","425802","0.0-9.1-16.1","","<div class = centerbox><div class = fixation>+</div></div>","none","500","","","","","","","","","","","","","","","","","","","","",""
"","564","37","1850","0","stop_change","test_trial","stop-signal","351","427665","0.0-9.1-17.1","","<img class = center src='/static/experiments/stop_change/images/red_circle.png'></img>","37,39,90","850","red_circle","37","1","test","go","","300","go","850","","","1","","","","","","","","",""
"","-1","-1","1400","0","stop_change","ITI","poldrack-single-stim","352","429069","0.0-9.1-18.1","","<div></div>","32","1400","","","","","","","","","","","","","","","","","","","","",""
"","-1","-1","500","0","stop_change","fixation","poldrack-single-stim","353","429575","0.0-9.1-19.1","","<div class = centerbox><div class = fixation>+</div></div>","none","500","","","","","","","","","","","","","","","","","","","","",""
"","663","39","1850","0","stop_change","test_trial","stop-signal","354","431437","0.0-9.1-20.1","","<img class = center src='/static/experiments/stop_change/images/turquoise_rhombus.png'></img>","37,39,90","850","turquoise_rhombus","39","1","test","go","","300","go","850","","","1","","","","","","","","",""
"","-1","-1","1400","0","stop_change","ITI","poldrack-single-stim","355","432842","0.0-9.1-21.1","","<div></div>","32","1400","","","","","","","","","","","","","","","","","","","","",""
"","-1","-1","500","0","stop_change","fixation","poldrack-single-stim","356","433347","0.0-9.1-22.1","","<div class = centerbox><div class = fixation>+</div></div>","none","500","","","","","","","","","","","","","","","","","","","","",""
"","582","37","1850","0","stop_change","test_trial","stop-signal","357","435210","0.0-9.1-23.1","","<img class = center src='/static/experiments/stop_change/images/green_triangle.png'></img>","37,39,90","850","green_triangle","37","1","test","go","","300","go","850","","","1","","","","","","","","",""
"","-1","-1","1400","0","stop_change","ITI","poldrack-single-stim","358","436614","0.0-9.1-24.1","","<div></div>","32","1400","","","","","","","","","","","","","","","","","","","","",""
"","-1","-1","500","0","stop_change","fixation","poldrack-single-stim","359","437120","0.0-9.1-25.1","","<div class = centerbox><div class = fixation>+</div></div>","none","500","","","","","","","","","","","","","","","","","","","","",""
"","383","37","1850","0","stop_change","test_trial","stop-signal","360","438983","0.0-9.1-26.1","","<img class = center src='/static/experiments/stop_change/images/red_circle.png'></img>","37,39,90","850","red_circle","37","1","test","go","","300","go","850","","","1","","","","","","","","",""
"","-1","-1","1400","0","stop_change","ITI","poldrack-single-stim","361","440387","0.0-9.1-27.1","","<div></div>","32","1400","","","","","","","","","","","","","","","","","","","","",""
"","-1","-1","500","0","stop_change","fixation","poldrack-single-stim","362","440893","0.0-9.1-28.1","","<div class = centerbox><div class = fixation>+</div></div>","none","500","","","","","","","","","","","","","","","","","","","","",""
"","570","39","1850","0","stop_change","test_trial","stop-signal","363","442755","0.0-9.1-29.1","","<img class = center src='/static/experiments/stop_change/images/brown_pentagon.png'></img>","37,39,90","850","brown_pentagon","90","1","test","stop","blue","300","stop","850","<img class = center src='/static/experiments/stop_change/images/blue_stopSignal.png'></img>","0","","","","","","","","","",""
"","-1","-1","1400","0","stop_change","ITI","poldrack-single-stim","364","444160","0.0-9.1-30.1","","<div></div>","32","1400","","","","","","","","","","","","","","","","","","","","",""
"","-1","-1","500","0","stop_change","fixation","poldrack-single-stim","365","444665","0.0-9.1-31.1","","<div class = centerbox><div class = fixation>+</div></div>","none","500","","","","","","","","","","","","","","","","","","","","",""
"","702","90","1850","0","stop_change","test_trial","stop-signal","366","446527","0.0-9.1-32.1","","<img class = center src='/static/experiments/stop_change/images/brown_pentagon.png'></img>","37,39,90","850","brown_pentagon","90","1","test","stop","purple","250","stop","850","<img class = center src='/static/experiments/stop_change/images/purple_stopSignal.png'></img>","1","","","","","","","","","",""
"","-1","-1","1400","0","stop_change","ITI","poldrack-single-stim","367","447932","0.0-9.1-33.1","","<div></div>","32","1400","","","","","","","","","","","","","","","","","","","","",""
"","-1","-1","500","0","stop_change","fixation","poldrack-single-stim","368","448437","0.0-9.1-34.1","","<div class = centerbox><div class = fixation>+</div></div>","none","500","","","","","","","","","","","","","","","","","","","","",""
"","566","39","1850","0","stop_change","test_trial","stop-signal","369","450301","0.0-9.1-35.1","","<img class = center src='/static/experiments/stop_change/images/brown_pentagon.png'></img>","37,39,90","850","brown_pentagon","39","1","test","go","","300","go","850","","","1","","","","","","","","",""
"","-1","-1","1400","0","stop_change","ITI","poldrack-single-stim","370","451706","0.0-9.1-36.1","","<div></div>","32","1400","","","","","","","","","","","","","","","","","","","","",""
"","1651","13","1651","0","stop_change","practice-no-stop-feedback","poldrack-single-stim","371","453361","0.0-9.2-0.2","","<div class = centerbox><p class = block-text><br>Please take this time to read your feedback and to take a short break! Press enter to continue</p><p class = block-text><strong>Average reaction time:  571 ms. Accuracy: 75%</strong></p></div>","13","1651","","","","","","","","","","","","","","","","","","","","",""
