text,rt,key_press,block_duration,timing_post_trial,trial_id,trial_type,trial_index,time_elapsed,internal_node_id,exp_id,subject_ID,view_history,stimulus,possible_responses,stim_duration,exp_stage,stim,go_nogo_type,correct_response,current_trial,current_block,chosenStim,chosenCond,stimLeft,cond_left,stimRight,cond_right<div class = centerbox><p class = center-block-text>Welcome to the task!</p><p class = center-block-text>Press<strong> enter</strong> to continue.</p></div>,2073,13,2073,0,welcome,poldrack-text,0,2075,0.0-0.0,go_nogo_deval,460,,,,,,,,,,,,,,,,,61169,,,,instruction,poldrack-instructions,1,63245,0.0-1.0,go_nogo_deval,460,"[{""page_index"":0,""viewing_time"":2691},{""page_index"":1,""viewing_time"":58477}]",,,,,,,,,,,,,,,,3684,13,3684,0,stop_intro_phase1,poldrack-single-stim,2,67932,0.0-2.0,go_nogo_deval,460,,"<div class = centerbox><p class = block-text>We will now start the practice for the experiment.<br><br>For these trials, you must press the <strong>spacebar </strong> or have <strong>no response</strong> depending on the shape of the stimulus.  Make sure to respond as quickly and accurately as possible to the shape. <br><br> The responses for each shape are as follows: <ul list-text><li>circle: spacebar</li><li>rhombus: spacebar</li><li>pentagon: no response</li><li>triangle: no response</li></ul></p><p class = block-text>Remember these rules before you proceed.</p><p class = block-text>Press <strong> enter</strong> to begin.</p></div>",13,3684,,,,,,,,,,,,,4071,13,4071,0,practice-no-stop-feedback,poldrack-single-stim,3,72005,0.0-3.0-0.0,go_nogo_deval,460,,<div class = centerbox><p class = block-text>We will now start with a practice session. In this practice concentrate on responding quickly and accurately to each stimuli unless it requires no response.</p><p class = block-text>Press enter to continue.</p></div>,13,4071,,,,,,,,,,,,,-1,-1,500,0,prompt_fixation,poldrack-single-stim,4,72508,0.0-3.0-1.0,go_nogo_deval,460,,<div class = centerbox><div class = fixation>+</div></div>,none,500,practice,,,,,,,,,,,,507,32,850,0,stim,poldrack-single-stim,5,73360,0.0-3.0-2.0,go_nogo_deval,460,,<img class = center src='/static/experiments/go_nogo_deval/images/red_circle.png'></img>,32,850,practice,red_circle,go1,32,0,0,,,,,,,-1,-1,1400,0,ITI,poldrack-single-stim,6,74762,0.0-3.0-3.0,go_nogo_deval,460,,<div></div>,32,1400,practice,,,,,,,,,,,,-1,-1,500,0,prompt_fixation,poldrack-single-stim,7,75264,0.0-3.0-4.0,go_nogo_deval,460,,<div class = centerbox><div class = fixation>+</div></div>,none,500,practice,,,,,,,,,,,,598,32,850,0,stim,poldrack-single-stim,8,76116,0.0-3.0-5.0,go_nogo_deval,460,,<img class = center src='/static/experiments/go_nogo_deval/images/blue_triangle.png'></img>,32,850,practice,blue_triangle,nogo2,-1,1,0,,,,,,,-1,-1,1400,0,ITI,poldrack-single-stim,9,77518,0.0-3.0-6.0,go_nogo_deval,460,,<div></div>,32,1400,practice,,,,,,,,,,,,-1,-1,500,0,prompt_fixation,poldrack-single-stim,10,78020,0.0-3.0-7.0,go_nogo_deval,460,,<div class = centerbox><div class = fixation>+</div></div>,none,500,practice,,,,,,,,,,,,543,32,850,0,stim,poldrack-single-stim,11,78871,0.0-3.0-8.0,go_nogo_deval,460,,<img class = center src='/static/experiments/go_nogo_deval/images/red_circle.png'></img>,32,850,practice,red_circle,go1,32,2,0,,,,,,,-1,-1,1400,0,ITI,poldrack-single-stim,12,80273,0.0-3.0-9.0,go_nogo_deval,460,,<div></div>,32,1400,practice,,,,,,,,,,,,-1,-1,500,0,prompt_fixation,poldrack-single-stim,13,80775,0.0-3.0-10.0,go_nogo_deval,460,,<div class = centerbox><div class = fixation>+</div></div>,none,500,practice,,,,,,,,,,,,38,32,850,0,stim,poldrack-single-stim,14,81627,0.0-3.0-11.0,go_nogo_deval,460,,<img class = center src='/static/experiments/go_nogo_deval/images/purple_rhombus.png'></img>,32,850,practice,purple_rhombus,go2,32,3,0,,,,,,,-1,-1,1400,0,ITI,poldrack-single-stim,15,83028,0.0-3.0-12.0,go_nogo_deval,460,,<div></div>,32,1400,practice,,,,,,,,,,,,-1,-1,500,0,prompt_fixation,poldrack-single-stim,16,83530,0.0-3.0-13.0,go_nogo_deval,460,,<div class = centerbox><div class = fixation>+</div></div>,none,500,practice,,,,,,,,,,,,668,32,850,0,stim,poldrack-single-stim,17,84383,0.0-3.0-14.0,go_nogo_deval,460,,<img class = center src='/static/experiments/go_nogo_deval/images/red_circle.png'></img>,32,850,practice,red_circle,go1,32,4,0,,,,,,,-1,-1,1400,0,ITI,poldrack-single-stim,18,85785,0.0-3.0-15.0,go_nogo_deval,460,,<div></div>,32,1400,practice,,,,,,,,,,,,-1,-1,500,0,prompt_fixation,poldrack-single-stim,19,86286,0.0-3.0-16.0,go_nogo_deval,460,,<div class = centerbox><div class = fixation>+</div></div>,none,500,practice,,,,,,,,,,,,422,32,850,0,stim,poldrack-single-stim,20,87138,0.0-3.0-17.0,go_nogo_deval,460,,<img class = center src='/static/experiments/go_nogo_deval/images/purple_rhombus.png'></img>,32,850,practice,purple_rhombus,go2,32,5,0,,,,,,,-1,-1,1400,0,ITI,poldrack-single-stim,21,88540,0.0-3.0-18.0,go_nogo_deval,460,,<div></div>,32,1400,practice,,,,,,,,,,,,-1,-1,500,0,prompt_fixation,poldrack-single-stim,22,89042,0.0-3.0-19.0,go_nogo_deval,460,,<div class = centerbox><div class = fixation>+</div></div>,none,500,practice,,,,,,,,,,,,28,32,850,0,stim,poldrack-single-stim,23,89893,0.0-3.0-20.0,go_nogo_deval,460,,<img class = center src='/static/experiments/go_nogo_deval/images/green_pentagon.png'></img>,32,850,practice,green_pentagon,nogo1,-1,6,0,,,,,,,-1,-1,1400,0,ITI,poldrack-single-stim,24,91296,0.0-3.0-21.0,go_nogo_deval,460,,<div></div>,32,1400,practice,,,,,,,,,,,,-1,-1,500,0,prompt_fixation,poldrack-single-stim,25,91798,0.0-3.0-22.0,go_nogo_deval,460,,<div class = centerbox><div class = fixation>+</div></div>,none,500,practice,,,,,,,,,,,,152,32,850,0,stim,poldrack-single-stim,26,92650,0.0-3.0-23.0,go_nogo_deval,460,,<img class = center src='/static/experiments/go_nogo_deval/images/green_pentagon.png'></img>,32,850,practice,green_pentagon,nogo1,-1,7,0,,,,,,,-1,-1,1400,0,ITI,poldrack-single-stim,27,94051,0.0-3.0-24.0,go_nogo_deval,460,,<div></div>,32,1400,practice,,,,,,,,,,,,-1,-1,500,0,prompt_fixation,poldrack-single-stim,28,94552,0.0-3.0-25.0,go_nogo_deval,460,,<div class = centerbox><div class = fixation>+</div></div>,none,500,practice,,,,,,,,,,,,436,32,850,0,stim,poldrack-single-stim,29,95403,0.0-3.0-26.0,go_nogo_deval,460,,<img class = center src='/static/experiments/go_nogo_deval/images/red_circle.png'></img>,32,850,practice,red_circle,go1,32,8,0,,,,,,,-1,-1,1400,0,ITI,poldrack-single-stim,30,96805,0.0-3.0-27.0,go_nogo_deval,460,,<div></div>,32,1400,practice,,,,,,,,,,,,-1,-1,500,0,prompt_fixation,poldrack-single-stim,31,97307,0.0-3.0-28.0,go_nogo_deval,460,,<div class = centerbox><div class = fixation>+</div></div>,none,500,practice,,,,,,,,,,,,482,32,850,0,stim,poldrack-single-stim,32,98159,0.0-3.0-29.0,go_nogo_deval,460,,<img class = center src='/static/experiments/go_nogo_deval/images/purple_rhombus.png'></img>,32,850,practice,purple_rhombus,go2,32,9,0,,,,,,,-1,-1,1400,0,ITI,poldrack-single-stim,33,99560,0.0-3.0-30.0,go_nogo_deval,460,,<div></div>,32,1400,practice,,,,,,,,,,,,-1,-1,500,0,prompt_fixation,poldrack-single-stim,34,100062,0.0-3.0-31.0,go_nogo_deval,460,,<div class = centerbox><div class = fixation>+</div></div>,none,500,practice,,,,,,,,,,,,55,32,850,0,stim,poldrack-single-stim,35,100914,0.0-3.0-32.0,go_nogo_deval,460,,<img class = center src='/static/experiments/go_nogo_deval/images/purple_rhombus.png'></img>,32,850,practice,purple_rhombus,go2,32,10,0,,,,,,,-1,-1,1400,0,ITI,poldrack-single-stim,36,102315,0.0-3.0-33.0,go_nogo_deval,460,,<div></div>,32,1400,practice,,,,,,,,,,,,-1,-1,500,0,prompt_fixation,poldrack-single-stim,37,102816,0.0-3.0-34.0,go_nogo_deval,460,,<div class = centerbox><div class = fixation>+</div></div>,none,500,practice,,,,,,,,,,,,429,32,850,0,stim,poldrack-single-stim,38,103668,0.0-3.0-35.0,go_nogo_deval,460,,<img class = center src='/static/experiments/go_nogo_deval/images/red_circle.png'></img>,32,850,practice,red_circle,go1,32,11,0,,,,,,,-1,-1,1400,0,ITI,poldrack-single-stim,39,105070,0.0-3.0-36.0,go_nogo_deval,460,,<div></div>,32,1400,practice,,,,,,,,,,,,-1,-1,500,0,prompt_fixation,poldrack-single-stim,40,105572,0.0-3.0-37.0,go_nogo_deval,460,,<div class = centerbox><div class = fixation>+</div></div>,none,500,practice,,,,,,,,,,,,373,32,850,0,stim,poldrack-single-stim,41,106423,0.0-3.0-38.0,go_nogo_deval,460,,<img class = center src='/static/experiments/go_nogo_deval/images/purple_rhombus.png'></img>,32,850,practice,purple_rhombus,go2,32,12,0,,,,,,,-1,-1,1400,0,ITI,poldrack-single-stim,42,107824,0.0-3.0-39.0,go_nogo_deval,460,,<div></div>,32,1400,practice,,,,,,,,,,,,-1,-1,500,0,prompt_fixation,poldrack-single-stim,43,108325,0.0-3.0-40.0,go_nogo_deval,460,,<div class = centerbox><div class = fixation>+</div></div>,none,500,practice,,,,,,,,,,,,376,32,850,0,stim,poldrack-single-stim,44,109177,0.0-3.0-41.0,go_nogo_deval,460,,<img class = center src='/static/experiments/go_nogo_deval/images/purple_rhombus.png'></img>,32,850,practice,purple_rhombus,go2,32,13,0,,,,,,,-1,-1,1400,0,ITI,poldrack-single-stim,45,110580,0.0-3.0-42.0,go_nogo_deval,460,,<div></div>,32,1400,practice,,,,,,,,,,,,-1,-1,500,0,prompt_fixation,poldrack-single-stim,46,111081,0.0-3.0-43.0,go_nogo_deval,460,,<div class = centerbox><div class = fixation>+</div></div>,none,500,practice,,,,,,,,,,,,455,32,850,0,stim,poldrack-single-stim,47,111933,0.0-3.0-44.0,go_nogo_deval,460,,<img class = center src='/static/experiments/go_nogo_deval/images/red_circle.png'></img>,32,850,practice,red_circle,go1,32,14,0,,,,,,,-1,-1,1400,0,ITI,poldrack-single-stim,48,113335,0.0-3.0-45.0,go_nogo_deval,460,,<div></div>,32,1400,practice,,,,,,,,,,,,-1,-1,500,0,prompt_fixation,poldrack-single-stim,49,113837,0.0-3.0-46.0,go_nogo_deval,460,,<div class = centerbox><div class = fixation>+</div></div>,none,500,practice,,,,,,,,,,,,433,32,850,0,stim,poldrack-single-stim,50,114689,0.0-3.0-47.0,go_nogo_deval,460,,<img class = center src='/static/experiments/go_nogo_deval/images/blue_triangle.png'></img>,32,850,practice,blue_triangle,nogo2,-1,15,0,,,,,,,-1,-1,1400,0,ITI,poldrack-single-stim,51,116091,0.0-3.0-48.0,go_nogo_deval,460,,<div></div>,32,1400,practice,,,,,,,,,,,,-1,-1,500,0,prompt_fixation,poldrack-single-stim,52,116592,0.0-3.0-49.0,go_nogo_deval,460,,<div class = centerbox><div class = fixation>+</div></div>,none,500,practice,,,,,,,,,,,,423,32,850,0,stim,poldrack-single-stim,53,117444,0.0-3.0-50.0,go_nogo_deval,460,,<img class = center src='/static/experiments/go_nogo_deval/images/green_pentagon.png'></img>,32,850,practice,green_pentagon,nogo1,-1,16,0,,,,,,,-1,-1,1400,0,ITI,poldrack-single-stim,54,118846,0.0-3.0-51.0,go_nogo_deval,460,,<div></div>,32,1400,practice,,,,,,,,,,,,-1,-1,500,0,prompt_fixation,poldrack-single-stim,55,119348,0.0-3.0-52.0,go_nogo_deval,460,,<div class = centerbox><div class = fixation>+</div></div>,none,500,practice,,,,,,,,,,,,481,32,850,0,stim,poldrack-single-stim,56,120200,0.0-3.0-53.0,go_nogo_deval,460,,<img class = center src='/static/experiments/go_nogo_deval/images/blue_triangle.png'></img>,32,850,practice,blue_triangle,nogo2,-1,17,0,,,,,,,-1,-1,1400,0,ITI,poldrack-single-stim,57,121601,0.0-3.0-54.0,go_nogo_deval,460,,<div></div>,32,1400,practice,,,,,,,,,,,,2962,13,2962,0,practice-no-stop-feedback,poldrack-single-stim,58,124565,0.0-4.0,go_nogo_deval,460,,<div class = centerbox><p class = block-text><br>Please take this time to read your feedback and to take a short break! Press enter to continue</p><p class = block-text><strong>Average reaction time:  383 ms. Accuracy: 67%</strong></p><p class = block-text>Done with this practice.</p></div>,13,2962,,,,,,,,,,,,,32828,13,32828,0,main_stop_intro_phase3,poldrack-single-stim,59,157393,0.0-5.0,go_nogo_deval,460,,"<div class = centerbox><p class = block-text>We will now start the main phase of the experiment.<br><br>These trials are the same as the trials that you have just completed. <br><br>The rules for each shape are as follows:  <br><ul list-text><li>circle: spacebar</li><li>rhombus: spacebar</li><li>pentagon: no response</li><li>triangle: no response</li></ul></p><p class = block-text>Remember these rules before you proceed, as they will no longer be presented during the trial.</p><p class = block-text>Press <strong> enter</strong> to begin.</p></div>",13,32828,,,,,,,,,,,,,3587,13,3587,0,practice-no-stop-feedback,poldrack-single-stim,60,160981,0.0-6.0-0.0,go_nogo_deval,460,,"<div class = centerbox><p class = block-text>We will now start with a test session. In this test, concentrate on responding quickly and accurately to each stimuli unless it requires no response.</p><p class = block-text>Press enter to continue.</p></div>",13,3587,,,,,,,,,,,,,-1,-1,500,0,fixation,poldrack-single-stim,61,161482,0.0-6.0-1.0,go_nogo_deval,460,,<div class = centerbox><div class = fixation>+</div></div>,none,500,test,,,,,,,,,,,,-1,-1,850,0,stim,poldrack-single-stim,62,162334,0.0-6.0-2.0,go_nogo_deval,460,,<img class = center src='/static/experiments/go_nogo_deval/images/blue_triangle.png'></img>,32,850,test,blue_triangle,nogo2,-1,0,0,,,,,,,-1,-1,1400,0,ITI,poldrack-single-stim,63,163736,0.0-6.0-3.0,go_nogo_deval,460,,<div></div>,32,1400,test,,,,,,,,,,,,-1,-1,500,0,fixation,poldrack-single-stim,64,164238,0.0-6.0-4.0,go_nogo_deval,460,,<div class = centerbox><div class = fixation>+</div></div>,none,500,test,,,,,,,,,,,,488,32,850,0,stim,poldrack-single-stim,65,165090,0.0-6.0-5.0,go_nogo_deval,460,,<img class = center src='/static/experiments/go_nogo_deval/images/purple_rhombus.png'></img>,32,850,test,purple_rhombus,go2,32,1,0,,,,,,,-1,-1,1400,0,ITI,poldrack-single-stim,66,166491,0.0-6.0-6.0,go_nogo_deval,460,,<div></div>,32,1400,test,,,,,,,,,,,,-1,-1,500,0,fixation,poldrack-single-stim,67,166992,0.0-6.0-7.0,go_nogo_deval,460,,<div class = centerbox><div class = fixation>+</div></div>,none,500,test,,,,,,,,,,,,-1,-1,850,0,stim,poldrack-single-stim,68,167844,0.0-6.0-8.0,go_nogo_deval,460,,<img class = center src='/static/experiments/go_nogo_deval/images/blue_triangle.png'></img>,32,850,test,blue_triangle,nogo2,-1,2,0,,,,,,,-1,-1,1400,0,ITI,poldrack-single-stim,69,169246,0.0-6.0-9.0,go_nogo_deval,460,,<div></div>,32,1400,test,,,,,,,,,,,,-1,-1,500,0,fixation,poldrack-single-stim,70,169748,0.0-6.0-10.0,go_nogo_deval,460,,<div class = centerbox><div class = fixation>+</div></div>,none,500,test,,,,,,,,,,,,436,32,850,0,stim,poldrack-single-stim,71,170600,0.0-6.0-11.0,go_nogo_deval,460,,<img class = center src='/static/experiments/go_nogo_deval/images/red_circle.png'></img>,32,850,test,red_circle,go1,32,3,0,,,,,,,-1,-1,1400,0,ITI,poldrack-single-stim,72,172002,0.0-6.0-12.0,go_nogo_deval,460,,<div></div>,32,1400,test,,,,,,,,,,,,-1,-1,500,0,fixation,poldrack-single-stim,73,172503,0.0-6.0-13.0,go_nogo_deval,460,,<div class = centerbox><div class = fixation>+</div></div>,none,500,test,,,,,,,,,,,,548,32,850,0,stim,poldrack-single-stim,74,173354,0.0-6.0-14.0,go_nogo_deval,460,,<img class = center src='/static/experiments/go_nogo_deval/images/purple_rhombus.png'></img>,32,850,test,purple_rhombus,go2,32,4,0,,,,,,,-1,-1,1400,0,ITI,poldrack-single-stim,75,174756,0.0-6.0-15.0,go_nogo_deval,460,,<div></div>,32,1400,test,,,,,,,,,,,,-1,-1,500,0,fixation,poldrack-single-stim,76,175257,0.0-6.0-16.0,go_nogo_deval,460,,<div class = centerbox><div class = fixation>+</div></div>,none,500,test,,,,,,,,,,,,417,32,850,0,stim,poldrack-single-stim,77,176109,0.0-6.0-17.0,go_nogo_deval,460,,<img class = center src='/static/experiments/go_nogo_deval/images/purple_rhombus.png'></img>,32,850,test,purple_rhombus,go2,32,5,0,,,,,,,-1,-1,1400,0,ITI,poldrack-single-stim,78,177510,0.0-6.0-18.0,go_nogo_deval,460,,<div></div>,32,1400,test,,,,,,,,,,,,-1,-1,500,0,fixation,poldrack-single-stim,79,178011,0.0-6.0-19.0,go_nogo_deval,460,,<div class = centerbox><div class = fixation>+</div></div>,none,500,test,,,,,,,,,,,,295,32,850,0,stim,poldrack-single-stim,80,178863,0.0-6.0-20.0,go_nogo_deval,460,,<img class = center src='/static/experiments/go_nogo_deval/images/purple_rhombus.png'></img>,32,850,test,purple_rhombus,go2,32,6,0,,,,,,,-1,-1,1400,0,ITI,poldrack-single-stim,81,180265,0.0-6.0-21.0,go_nogo_deval,460,,<div></div>,32,1400,test,,,,,,,,,,,,-1,-1,500,0,fixation,poldrack-single-stim,82,180766,0.0-6.0-22.0,go_nogo_deval,460,,<div class = centerbox><div class = fixation>+</div></div>,none,500,test,,,,,,,,,,,,-1,-1,850,0,stim,poldrack-single-stim,83,181618,0.0-6.0-23.0,go_nogo_deval,460,,<img class = center src='/static/experiments/go_nogo_deval/images/blue_triangle.png'></img>,32,850,test,blue_triangle,nogo2,-1,7,0,,,,,,,-1,-1,1400,0,ITI,poldrack-single-stim,84,183019,0.0-6.0-24.0,go_nogo_deval,460,,<div></div>,32,1400,test,,,,,,,,,,,,-1,-1,500,0,fixation,poldrack-single-stim,85,183521,0.0-6.0-25.0,go_nogo_deval,460,,<div class = centerbox><div class = fixation>+</div></div>,none,500,test,,,,,,,,,,,,-1,-1,850,0,stim,poldrack-single-stim,86,184373,0.0-6.0-26.0,go_nogo_deval,460,,<img class = center src='/static/experiments/go_nogo_deval/images/green_pentagon.png'></img>,32,850,test,green_pentagon,nogo1,-1,8,0,,,,,,,-1,-1,1400,0,ITI,poldrack-single-stim,87,185774,0.0-6.0-27.0,go_nogo_deval,460,,<div></div>,32,1400,test,,,,,,,,,,,,-1,-1,500,0,fixation,poldrack-single-stim,88,186275,0.0-6.0-28.0,go_nogo_deval,460,,<div class = centerbox><div class = fixation>+</div></div>,none,500,test,,,,,,,,,,,,457,32,850,0,stim,poldrack-single-stim,89,187127,0.0-6.0-29.0,go_nogo_deval,460,,<img class = center src='/static/experiments/go_nogo_deval/images/purple_rhombus.png'></img>,32,850,test,purple_rhombus,go2,32,9,0,,,,,,,-1,-1,1400,0,ITI,poldrack-single-stim,90,188529,0.0-6.0-30.0,go_nogo_deval,460,,<div></div>,32,1400,test,,,,,,,,,,,,-1,-1,500,0,fixation,poldrack-single-stim,91,189030,0.0-6.0-31.0,go_nogo_deval,460,,<div class = centerbox><div class = fixation>+</div></div>,none,500,test,,,,,,,,,,,,391,32,850,0,stim,poldrack-single-stim,92,189882,0.0-6.0-32.0,go_nogo_deval,460,,<img class = center src='/static/experiments/go_nogo_deval/images/red_circle.png'></img>,32,850,test,red_circle,go1,32,10,0,,,,,,,-1,-1,1400,0,ITI,poldrack-single-stim,93,191283,0.0-6.0-33.0,go_nogo_deval,460,,<div></div>,32,1400,test,,,,,,,,,,,,-1,-1,500,0,fixation,poldrack-single-stim,94,191785,0.0-6.0-34.0,go_nogo_deval,460,,<div class = centerbox><div class = fixation>+</div></div>,none,500,test,,,,,,,,,,,,325,32,850,0,stim,poldrack-single-stim,95,192637,0.0-6.0-35.0,go_nogo_deval,460,,<img class = center src='/static/experiments/go_nogo_deval/images/red_circle.png'></img>,32,850,test,red_circle,go1,32,11,0,,,,,,,-1,-1,1400,0,ITI,poldrack-single-stim,96,194038,0.0-6.0-36.0,go_nogo_deval,460,,<div></div>,32,1400,test,,,,,,,,,,,,-1,-1,500,0,fixation,poldrack-single-stim,97,194540,0.0-6.0-37.0,go_nogo_deval,460,,<div class = centerbox><div class = fixation>+</div></div>,none,500,test,,,,,,,,,,,,461,32,850,0,stim,poldrack-single-stim,98,195392,0.0-6.0-38.0,go_nogo_deval,460,,<img class = center src='/static/experiments/go_nogo_deval/images/red_circle.png'></img>,32,850,test,red_circle,go1,32,12,0,,,,,,,-1,-1,1400,0,ITI,poldrack-single-stim,99,196794,0.0-6.0-39.0,go_nogo_deval,460,,<div></div>,32,1400,test,,,,,,,,,,,,-1,-1,500,0,fixation,poldrack-single-stim,100,197296,0.0-6.0-40.0,go_nogo_deval,460,,<div class = centerbox><div class = fixation>+</div></div>,none,500,test,,,,,,,,,,,,496,32,850,0,stim,poldrack-single-stim,101,198148,0.0-6.0-41.0,go_nogo_deval,460,,<img class = center src='/static/experiments/go_nogo_deval/images/purple_rhombus.png'></img>,32,850,test,purple_rhombus,go2,32,13,0,,,,,,,-1,-1,1400,0,ITI,poldrack-single-stim,102,199549,0.0-6.0-42.0,go_nogo_deval,460,,<div></div>,32,1400,test,,,,,,,,,,,,-1,-1,500,0,fixation,poldrack-single-stim,103,200051,0.0-6.0-43.0,go_nogo_deval,460,,<div class = centerbox><div class = fixation>+</div></div>,none,500,test,,,,,,,,,,,,-1,-1,850,0,stim,poldrack-single-stim,104,200902,0.0-6.0-44.0,go_nogo_deval,460,,<img class = center src='/static/experiments/go_nogo_deval/images/green_pentagon.png'></img>,32,850,test,green_pentagon,nogo1,-1,14,0,,,,,,,-1,-1,1400,0,ITI,poldrack-single-stim,105,202304,0.0-6.0-45.0,go_nogo_deval,460,,<div></div>,32,1400,test,,,,,,,,,,,,-1,-1,500,0,fixation,poldrack-single-stim,106,202806,0.0-6.0-46.0,go_nogo_deval,460,,<div class = centerbox><div class = fixation>+</div></div>,none,500,test,,,,,,,,,,,,430,32,850,0,stim,poldrack-single-stim,107,203658,0.0-6.0-47.0,go_nogo_deval,460,,<img class = center src='/static/experiments/go_nogo_deval/images/green_pentagon.png'></img>,32,850,test,green_pentagon,nogo1,-1,15,0,,,,,,,-1,-1,1400,0,ITI,poldrack-single-stim,108,205060,0.0-6.0-48.0,go_nogo_deval,460,,<div></div>,32,1400,test,,,,,,,,,,,,-1,-1,500,0,fixation,poldrack-single-stim,109,205561,0.0-6.0-49.0,go_nogo_deval,460,,<div class = centerbox><div class = fixation>+</div></div>,none,500,test,,,,,,,,,,,,464,32,850,0,stim,poldrack-single-stim,110,206413,0.0-6.0-50.0,go_nogo_deval,460,,<img class = center src='/static/experiments/go_nogo_deval/images/purple_rhombus.png'></img>,32,850,test,purple_rhombus,go2,32,16,0,,,,,,,-1,-1,1400,0,ITI,poldrack-single-stim,111,207815,0.0-6.0-51.0,go_nogo_deval,460,,<div></div>,32,1400,test,,,,,,,,,,,,-1,-1,500,0,fixation,poldrack-single-stim,112,208317,0.0-6.0-52.0,go_nogo_deval,460,,<div class = centerbox><div class = fixation>+</div></div>,none,500,test,,,,,,,,,,,,-1,-1,850,0,stim,poldrack-single-stim,113,209168,0.0-6.0-53.0,go_nogo_deval,460,,<img class = center src='/static/experiments/go_nogo_deval/images/blue_triangle.png'></img>,32,850,test,blue_triangle,nogo2,-1,17,0,,,,,,,-1,-1,1400,0,ITI,poldrack-single-stim,114,210570,0.0-6.0-54.0,go_nogo_deval,460,,<div></div>,32,1400,test,,,,,,,,,,,,-1,-1,500,0,fixation,poldrack-single-stim,115,211072,0.0-6.0-55.0,go_nogo_deval,460,,<div class = centerbox><div class = fixation>+</div></div>,none,500,test,,,,,,,,,,,,512,32,850,0,stim,poldrack-single-stim,116,211923,0.0-6.0-56.0,go_nogo_deval,460,,<img class = center src='/static/experiments/go_nogo_deval/images/purple_rhombus.png'></img>,32,850,test,purple_rhombus,go2,32,18,0,,,,,,,-1,-1,1400,0,ITI,poldrack-single-stim,117,213325,0.0-6.0-57.0,go_nogo_deval,460,,<div></div>,32,1400,test,,,,,,,,,,,,-1,-1,500,0,fixation,poldrack-single-stim,118,213826,0.0-6.0-58.0,go_nogo_deval,460,,<div class = centerbox><div class = fixation>+</div></div>,none,500,test,,,,,,,,,,,,400,32,850,0,stim,poldrack-single-stim,119,214678,0.0-6.0-59.0,go_nogo_deval,460,,<img class = center src='/static/experiments/go_nogo_deval/images/red_circle.png'></img>,32,850,test,red_circle,go1,32,19,0,,,,,,,-1,-1,1400,0,ITI,poldrack-single-stim,120,216080,0.0-6.0-60.0,go_nogo_deval,460,,<div></div>,32,1400,test,,,,,,,,,,,,-1,-1,500,0,fixation,poldrack-single-stim,121,216582,0.0-6.0-61.0,go_nogo_deval,460,,<div class = centerbox><div class = fixation>+</div></div>,none,500,test,,,,,,,,,,,,469,32,850,0,stim,poldrack-single-stim,122,217434,0.0-6.0-62.0,go_nogo_deval,460,,<img class = center src='/static/experiments/go_nogo_deval/images/red_circle.png'></img>,32,850,test,red_circle,go1,32,20,0,,,,,,,-1,-1,1400,0,ITI,poldrack-single-stim,123,218835,0.0-6.0-63.0,go_nogo_deval,460,,<div></div>,32,1400,test,,,,,,,,,,,,-1,-1,500,0,fixation,poldrack-single-stim,124,219336,0.0-6.0-64.0,go_nogo_deval,460,,<div class = centerbox><div class = fixation>+</div></div>,none,500,test,,,,,,,,,,,,460,32,850,0,stim,poldrack-single-stim,125,220188,0.0-6.0-65.0,go_nogo_deval,460,,<img class = center src='/static/experiments/go_nogo_deval/images/purple_rhombus.png'></img>,32,850,test,purple_rhombus,go2,32,21,0,,,,,,,-1,-1,1400,0,ITI,poldrack-single-stim,126,221589,0.0-6.0-66.0,go_nogo_deval,460,,<div></div>,32,1400,test,,,,,,,,,,,,-1,-1,500,0,fixation,poldrack-single-stim,127,222091,0.0-6.0-67.0,go_nogo_deval,460,,<div class = centerbox><div class = fixation>+</div></div>,none,500,test,,,,,,,,,,,,439,32,850,0,stim,poldrack-single-stim,128,222943,0.0-6.0-68.0,go_nogo_deval,460,,<img class = center src='/static/experiments/go_nogo_deval/images/red_circle.png'></img>,32,850,test,red_circle,go1,32,22,0,,,,,,,-1,-1,1400,0,ITI,poldrack-single-stim,129,224345,0.0-6.0-69.0,go_nogo_deval,460,,<div></div>,32,1400,test,,,,,,,,,,,,-1,-1,500,0,fixation,poldrack-single-stim,130,224846,0.0-6.0-70.0,go_nogo_deval,460,,<div class = centerbox><div class = fixation>+</div></div>,none,500,test,,,,,,,,,,,,-1,-1,850,0,stim,poldrack-single-stim,131,225698,0.0-6.0-71.0,go_nogo_deval,460,,<img class = center src='/static/experiments/go_nogo_deval/images/blue_triangle.png'></img>,32,850,test,blue_triangle,nogo2,-1,23,0,,,,,,,-1,-1,1400,0,ITI,poldrack-single-stim,132,227100,0.0-6.0-72.0,go_nogo_deval,460,,<div></div>,32,1400,test,,,,,,,,,,,,-1,-1,500,0,fixation,poldrack-single-stim,133,227602,0.0-6.0-73.0,go_nogo_deval,460,,<div class = centerbox><div class = fixation>+</div></div>,none,500,test,,,,,,,,,,,,452,32,850,0,stim,poldrack-single-stim,134,228454,0.0-6.0-74.0,go_nogo_deval,460,,<img class = center src='/static/experiments/go_nogo_deval/images/purple_rhombus.png'></img>,32,850,test,purple_rhombus,go2,32,24,0,,,,,,,-1,-1,1400,0,ITI,poldrack-single-stim,135,229855,0.0-6.0-75.0,go_nogo_deval,460,,<div></div>,32,1400,test,,,,,,,,,,,,-1,-1,500,0,fixation,poldrack-single-stim,136,230357,0.0-6.0-76.0,go_nogo_deval,460,,<div class = centerbox><div class = fixation>+</div></div>,none,500,test,,,,,,,,,,,,-1,-1,850,0,stim,poldrack-single-stim,137,231209,0.0-6.0-77.0,go_nogo_deval,460,,<img class = center src='/static/experiments/go_nogo_deval/images/blue_triangle.png'></img>,32,850,test,blue_triangle,nogo2,-1,25,0,,,,,,,-1,-1,1400,0,ITI,poldrack-single-stim,138,232611,0.0-6.0-78.0,go_nogo_deval,460,,<div></div>,32,1400,test,,,,,,,,,,,,-1,-1,500,0,fixation,poldrack-single-stim,139,233112,0.0-6.0-79.0,go_nogo_deval,460,,<div class = centerbox><div class = fixation>+</div></div>,none,500,test,,,,,,,,,,,,466,32,850,0,stim,poldrack-single-stim,140,233963,0.0-6.0-80.0,go_nogo_deval,460,,<img class = center src='/static/experiments/go_nogo_deval/images/red_circle.png'></img>,32,850,test,red_circle,go1,32,26,0,,,,,,,-1,-1,1400,0,ITI,poldrack-single-stim,141,235365,0.0-6.0-81.0,go_nogo_deval,460,,<div></div>,32,1400,test,,,,,,,,,,,,-1,-1,500,0,fixation,poldrack-single-stim,142,235866,0.0-6.0-82.0,go_nogo_deval,460,,<div class = centerbox><div class = fixation>+</div></div>,none,500,test,,,,,,,,,,,,378,32,850,0,stim,poldrack-single-stim,143,236717,0.0-6.0-83.0,go_nogo_deval,460,,<img class = center src='/static/experiments/go_nogo_deval/images/red_circle.png'></img>,32,850,test,red_circle,go1,32,27,0,,,,,,,-1,-1,1400,0,ITI,poldrack-single-stim,144,238119,0.0-6.0-84.0,go_nogo_deval,460,,<div></div>,32,1400,test,,,,,,,,,,,,-1,-1,500,0,fixation,poldrack-single-stim,145,238621,0.0-6.0-85.0,go_nogo_deval,460,,<div class = centerbox><div class = fixation>+</div></div>,none,500,test,,,,,,,,,,,,-1,-1,850,0,stim,poldrack-single-stim,146,239472,0.0-6.0-86.0,go_nogo_deval,460,,<img class = center src='/static/experiments/go_nogo_deval/images/blue_triangle.png'></img>,32,850,test,blue_triangle,nogo2,-1,28,0,,,,,,,-1,-1,1400,0,ITI,poldrack-single-stim,147,240874,0.0-6.0-87.0,go_nogo_deval,460,,<div></div>,32,1400,test,,,,,,,,,,,,-1,-1,500,0,fixation,poldrack-single-stim,148,241375,0.0-6.0-88.0,go_nogo_deval,460,,<div class = centerbox><div class = fixation>+</div></div>,none,500,test,,,,,,,,,,,,527,32,850,0,stim,poldrack-single-stim,149,242228,0.0-6.0-89.0,go_nogo_deval,460,,<img class = center src='/static/experiments/go_nogo_deval/images/purple_rhombus.png'></img>,32,850,test,purple_rhombus,go2,32,29,0,,,,,,,-1,-1,1400,0,ITI,poldrack-single-stim,150,243629,0.0-6.0-90.0,go_nogo_deval,460,,<div></div>,32,1400,test,,,,,,,,,,,,-1,-1,500,0,fixation,poldrack-single-stim,151,244131,0.0-6.0-91.0,go_nogo_deval,460,,<div class = centerbox><div class = fixation>+</div></div>,none,500,test,,,,,,,,,,,,382,32,850,0,stim,poldrack-single-stim,152,244983,0.0-6.0-92.0,go_nogo_deval,460,,<img class = center src='/static/experiments/go_nogo_deval/images/purple_rhombus.png'></img>,32,850,test,purple_rhombus,go2,32,30,0,,,,,,,-1,-1,1400,0,ITI,poldrack-single-stim,153,246385,0.0-6.0-93.0,go_nogo_deval,460,,<div></div>,32,1400,test,,,,,,,,,,,,-1,-1,500,0,fixation,poldrack-single-stim,154,246887,0.0-6.0-94.0,go_nogo_deval,460,,<div class = centerbox><div class = fixation>+</div></div>,none,500,test,,,,,,,,,,,,472,32,850,0,stim,poldrack-single-stim,155,247738,0.0-6.0-95.0,go_nogo_deval,460,,<img class = center src='/static/experiments/go_nogo_deval/images/red_circle.png'></img>,32,850,test,red_circle,go1,32,31,0,,,,,,,-1,-1,1400,0,ITI,poldrack-single-stim,156,249139,0.0-6.0-96.0,go_nogo_deval,460,,<div></div>,32,1400,test,,,,,,,,,,,,-1,-1,500,0,fixation,poldrack-single-stim,157,249640,0.0-6.0-97.0,go_nogo_deval,460,,<div class = centerbox><div class = fixation>+</div></div>,none,500,test,,,,,,,,,,,,352,32,850,0,stim,poldrack-single-stim,158,250492,0.0-6.0-98.0,go_nogo_deval,460,,<img class = center src='/static/experiments/go_nogo_deval/images/red_circle.png'></img>,32,850,test,red_circle,go1,32,32,0,,,,,,,-1,-1,1400,0,ITI,poldrack-single-stim,159,251894,0.0-6.0-99.0,go_nogo_deval,460,,<div></div>,32,1400,test,,,,,,,,,,,,-1,-1,500,0,fixation,poldrack-single-stim,160,252396,0.0-6.0-100.0,go_nogo_deval,460,,<div class = centerbox><div class = fixation>+</div></div>,none,500,test,,,,,,,,,,,,374,32,850,0,stim,poldrack-single-stim,161,253246,0.0-6.0-101.0,go_nogo_deval,460,,<img class = center src='/static/experiments/go_nogo_deval/images/green_pentagon.png'></img>,32,850,test,green_pentagon,nogo1,-1,33,0,,,,,,,-1,-1,1400,0,ITI,poldrack-single-stim,162,254648,0.0-6.0-102.0,go_nogo_deval,460,,<div></div>,32,1400,test,,,,,,,,,,,,-1,-1,500,0,fixation,poldrack-single-stim,163,255150,0.0-6.0-103.0,go_nogo_deval,460,,<div class = centerbox><div class = fixation>+</div></div>,none,500,test,,,,,,,,,,,,387,32,850,0,stim,poldrack-single-stim,164,256001,0.0-6.0-104.0,go_nogo_deval,460,,<img class = center src='/static/experiments/go_nogo_deval/images/red_circle.png'></img>,32,850,test,red_circle,go1,32,34,0,,,,,,,-1,-1,1400,0,ITI,poldrack-single-stim,165,257402,0.0-6.0-105.0,go_nogo_deval,460,,<div></div>,32,1400,test,,,,,,,,,,,,-1,-1,500,0,fixation,poldrack-single-stim,166,257904,0.0-6.0-106.0,go_nogo_deval,460,,<div class = centerbox><div class = fixation>+</div></div>,none,500,test,,,,,,,,,,,,412,32,850,0,stim,poldrack-single-stim,167,258755,0.0-6.0-107.0,go_nogo_deval,460,,<img class = center src='/static/experiments/go_nogo_deval/images/red_circle.png'></img>,32,850,test,red_circle,go1,32,35,0,,,,,,,-1,-1,1400,0,ITI,poldrack-single-stim,168,260157,0.0-6.0-108.0,go_nogo_deval,460,,<div></div>,32,1400,test,,,,,,,,,,,,-1,-1,500,0,fixation,poldrack-single-stim,169,260658,0.0-6.0-109.0,go_nogo_deval,460,,<div class = centerbox><div class = fixation>+</div></div>,none,500,test,,,,,,,,,,,,-1,-1,850,0,stim,poldrack-single-stim,170,261510,0.0-6.0-110.0,go_nogo_deval,460,,<img class = center src='/static/experiments/go_nogo_deval/images/green_pentagon.png'></img>,32,850,test,green_pentagon,nogo1,-1,36,0,,,,,,,-1,-1,1400,0,ITI,poldrack-single-stim,171,262911,0.0-6.0-111.0,go_nogo_deval,460,,<div></div>,32,1400,test,,,,,,,,,,,,-1,-1,500,0,fixation,poldrack-single-stim,172,263413,0.0-6.0-112.0,go_nogo_deval,460,,<div class = centerbox><div class = fixation>+</div></div>,none,500,test,,,,,,,,,,,,484,32,850,0,stim,poldrack-single-stim,173,264264,0.0-6.0-113.0,go_nogo_deval,460,,<img class = center src='/static/experiments/go_nogo_deval/images/purple_rhombus.png'></img>,32,850,test,purple_rhombus,go2,32,37,0,,,,,,,-1,-1,1400,0,ITI,poldrack-single-stim,174,265666,0.0-6.0-114.0,go_nogo_deval,460,,<div></div>,32,1400,test,,,,,,,,,,,,-1,-1,500,0,fixation,poldrack-single-stim,175,266166,0.0-6.0-115.0,go_nogo_deval,460,,<div class = centerbox><div class = fixation>+</div></div>,none,500,test,,,,,,,,,,,,464,32,850,0,stim,poldrack-single-stim,176,267018,0.0-6.0-116.0,go_nogo_deval,460,,<img class = center src='/static/experiments/go_nogo_deval/images/red_circle.png'></img>,32,850,test,red_circle,go1,32,38,0,,,,,,,-1,-1,1400,0,ITI,poldrack-single-stim,177,268420,0.0-6.0-117.0,go_nogo_deval,460,,<div></div>,32,1400,test,,,,,,,,,,,,-1,-1,500,0,fixation,poldrack-single-stim,178,268922,0.0-6.0-118.0,go_nogo_deval,460,,<div class = centerbox><div class = fixation>+</div></div>,none,500,test,,,,,,,,,,,,352,32,850,0,stim,poldrack-single-stim,179,269774,0.0-6.0-119.0,go_nogo_deval,460,,<img class = center src='/static/experiments/go_nogo_deval/images/purple_rhombus.png'></img>,32,850,test,purple_rhombus,go2,32,39,0,,,,,,,-1,-1,1400,0,ITI,poldrack-single-stim,180,271176,0.0-6.0-120.0,go_nogo_deval,460,,<div></div>,32,1400,test,,,,,,,,,,,,-1,-1,500,0,fixation,poldrack-single-stim,181,271676,0.0-6.0-121.0,go_nogo_deval,460,,<div class = centerbox><div class = fixation>+</div></div>,none,500,test,,,,,,,,,,,,477,32,850,0,stim,poldrack-single-stim,182,272528,0.0-6.0-122.0,go_nogo_deval,460,,<img class = center src='/static/experiments/go_nogo_deval/images/purple_rhombus.png'></img>,32,850,test,purple_rhombus,go2,32,40,0,,,,,,,-1,-1,1400,0,ITI,poldrack-single-stim,183,273930,0.0-6.0-123.0,go_nogo_deval,460,,<div></div>,32,1400,test,,,,,,,,,,,,-1,-1,500,0,fixation,poldrack-single-stim,184,274431,0.0-6.0-124.0,go_nogo_deval,460,,<div class = centerbox><div class = fixation>+</div></div>,none,500,test,,,,,,,,,,,,445,32,850,0,stim,poldrack-single-stim,185,275282,0.0-6.0-125.0,go_nogo_deval,460,,<img class = center src='/static/experiments/go_nogo_deval/images/red_circle.png'></img>,32,850,test,red_circle,go1,32,41,0,,,,,,,-1,-1,1400,0,ITI,poldrack-single-stim,186,276683,0.0-6.0-126.0,go_nogo_deval,460,,<div></div>,32,1400,test,,,,,,,,,,,,-1,-1,500,0,fixation,poldrack-single-stim,187,277184,0.0-6.0-127.0,go_nogo_deval,460,,<div class = centerbox><div class = fixation>+</div></div>,none,500,test,,,,,,,,,,,,415,32,850,0,stim,poldrack-single-stim,188,278036,0.0-6.0-128.0,go_nogo_deval,460,,<img class = center src='/static/experiments/go_nogo_deval/images/purple_rhombus.png'></img>,32,850,test,purple_rhombus,go2,32,42,0,,,,,,,-1,-1,1400,0,ITI,poldrack-single-stim,189,279437,0.0-6.0-129.0,go_nogo_deval,460,,<div></div>,32,1400,test,,,,,,,,,,,,-1,-1,500,0,fixation,poldrack-single-stim,190,279938,0.0-6.0-130.0,go_nogo_deval,460,,<div class = centerbox><div class = fixation>+</div></div>,none,500,test,,,,,,,,,,,,-1,-1,850,0,stim,poldrack-single-stim,191,280790,0.0-6.0-131.0,go_nogo_deval,460,,<img class = center src='/static/experiments/go_nogo_deval/images/green_pentagon.png'></img>,32,850,test,green_pentagon,nogo1,-1,43,0,,,,,,,-1,-1,1400,0,ITI,poldrack-single-stim,192,282191,0.0-6.0-132.0,go_nogo_deval,460,,<div></div>,32,1400,test,,,,,,,,,,,,-1,-1,500,0,fixation,poldrack-single-stim,193,282692,0.0-6.0-133.0,go_nogo_deval,460,,<div class = centerbox><div class = fixation>+</div></div>,none,500,test,,,,,,,,,,,,397,32,850,0,stim,poldrack-single-stim,194,283543,0.0-6.0-134.0,go_nogo_deval,460,,<img class = center src='/static/experiments/go_nogo_deval/images/green_pentagon.png'></img>,32,850,test,green_pentagon,nogo1,-1,44,0,,,,,,,-1,-1,1400,0,ITI,poldrack-single-stim,195,284944,0.0-6.0-135.0,go_nogo_deval,460,,<div></div>,32,1400,test,,,,,,,,,,,,-1,-1,500,0,fixation,poldrack-single-stim,196,285445,0.0-6.0-136.0,go_nogo_deval,460,,<div class = centerbox><div class = fixation>+</div></div>,none,500,test,,,,,,,,,,,,-1,-1,850,0,stim,poldrack-single-stim,197,286297,0.0-6.0-137.0,go_nogo_deval,460,,<img class = center src='/static/experiments/go_nogo_deval/images/green_pentagon.png'></img>,32,850,test,green_pentagon,nogo1,-1,45,0,,,,,,,-1,-1,1400,0,ITI,poldrack-single-stim,198,287699,0.0-6.0-138.0,go_nogo_deval,460,,<div></div>,32,1400,test,,,,,,,,,,,,-1,-1,500,0,fixation,poldrack-single-stim,199,288201,0.0-6.0-139.0,go_nogo_deval,460,,<div class = centerbox><div class = fixation>+</div></div>,none,500,test,,,,,,,,,,,,469,32,850,0,stim,poldrack-single-stim,200,289053,0.0-6.0-140.0,go_nogo_deval,460,,<img class = center src='/static/experiments/go_nogo_deval/images/red_circle.png'></img>,32,850,test,red_circle,go1,32,46,0,,,,,,,-1,-1,1400,0,ITI,poldrack-single-stim,201,290454,0.0-6.0-141.0,go_nogo_deval,460,,<div></div>,32,1400,test,,,,,,,,,,,,-1,-1,500,0,fixation,poldrack-single-stim,202,290955,0.0-6.0-142.0,go_nogo_deval,460,,<div class = centerbox><div class = fixation>+</div></div>,none,500,test,,,,,,,,,,,,-1,-1,850,0,stim,poldrack-single-stim,203,291807,0.0-6.0-143.0,go_nogo_deval,460,,<img class = center src='/static/experiments/go_nogo_deval/images/blue_triangle.png'></img>,32,850,test,blue_triangle,nogo2,-1,47,0,,,,,,,-1,-1,1400,0,ITI,poldrack-single-stim,204,293208,0.0-6.0-144.0,go_nogo_deval,460,,<div></div>,32,1400,test,,,,,,,,,,,,20478,13,20478,0,practice-no-stop-feedback,poldrack-single-stim,205,313691,0.0-6.1-0.1,go_nogo_deval,460,,"<div class = centerbox><p class = block-text><br>Please take this time to read your feedback and to take a short break! Press enter to continue</p><p class = block-text><strong>Average reaction time:  434 ms. Accuracy: 94%</strong></p><p class = block-text>We have detected a number of trials that <strong>required no response</strong>, where a response was made.  Please <strong>ensure that you do not respond </strong>to shapes that require no response</p></div>",13,20478,,,,,,,,,,,,,-1,-1,500,0,fixation,poldrack-single-stim,206,314192,0.0-6.1-1.1,go_nogo_deval,460,,<div class = centerbox><div class = fixation>+</div></div>,none,500,test,,,,,,,,,,,,576,32,850,0,stim,poldrack-single-stim,207,315043,0.0-6.1-2.1,go_nogo_deval,460,,<img class = center src='/static/experiments/go_nogo_deval/images/purple_rhombus.png'></img>,32,850,test,purple_rhombus,go2,32,0,1,,,,,,,-1,-1,1400,0,ITI,poldrack-single-stim,208,316445,0.0-6.1-3.1,go_nogo_deval,460,,<div></div>,32,1400,test,,,,,,,,,,,,-1,-1,500,0,fixation,poldrack-single-stim,209,316946,0.0-6.1-4.1,go_nogo_deval,460,,<div class = centerbox><div class = fixation>+</div></div>,none,500,test,,,,,,,,,,,,467,32,850,0,stim,poldrack-single-stim,210,317798,0.0-6.1-5.1,go_nogo_deval,460,,<img class = center src='/static/experiments/go_nogo_deval/images/red_circle.png'></img>,32,850,test,red_circle,go1,32,1,1,,,,,,,-1,-1,1400,0,ITI,poldrack-single-stim,211,319200,0.0-6.1-6.1,go_nogo_deval,460,,<div></div>,32,1400,test,,,,,,,,,,,,-1,-1,500,0,fixation,poldrack-single-stim,212,319701,0.0-6.1-7.1,go_nogo_deval,460,,<div class = centerbox><div class = fixation>+</div></div>,none,500,test,,,,,,,,,,,,-1,-1,850,0,stim,poldrack-single-stim,213,320552,0.0-6.1-8.1,go_nogo_deval,460,,<img class = center src='/static/experiments/go_nogo_deval/images/green_pentagon.png'></img>,32,850,test,green_pentagon,nogo1,-1,2,1,,,,,,,-1,-1,1400,0,ITI,poldrack-single-stim,214,321954,0.0-6.1-9.1,go_nogo_deval,460,,<div></div>,32,1400,test,,,,,,,,,,,,-1,-1,500,0,fixation,poldrack-single-stim,215,322456,0.0-6.1-10.1,go_nogo_deval,460,,<div class = centerbox><div class = fixation>+</div></div>,none,500,test,,,,,,,,,,,,414,32,850,0,stim,poldrack-single-stim,216,323308,0.0-6.1-11.1,go_nogo_deval,460,,<img class = center src='/static/experiments/go_nogo_deval/images/red_circle.png'></img>,32,850,test,red_circle,go1,32,3,1,,,,,,,-1,-1,1400,0,ITI,poldrack-single-stim,217,324709,0.0-6.1-12.1,go_nogo_deval,460,,<div></div>,32,1400,test,,,,,,,,,,,,-1,-1,500,0,fixation,poldrack-single-stim,218,325210,0.0-6.1-13.1,go_nogo_deval,460,,<div class = centerbox><div class = fixation>+</div></div>,none,500,test,,,,,,,,,,,,-1,-1,850,0,stim,poldrack-single-stim,219,326062,0.0-6.1-14.1,go_nogo_deval,460,,<img class = center src='/static/experiments/go_nogo_deval/images/blue_triangle.png'></img>,32,850,test,blue_triangle,nogo2,-1,4,1,,,,,,,-1,-1,1400,0,ITI,poldrack-single-stim,220,327464,0.0-6.1-15.1,go_nogo_deval,460,,<div></div>,32,1400,test,,,,,,,,,,,,-1,-1,500,0,fixation,poldrack-single-stim,221,327965,0.0-6.1-16.1,go_nogo_deval,460,,<div class = centerbox><div class = fixation>+</div></div>,none,500,test,,,,,,,,,,,,418,32,850,0,stim,poldrack-single-stim,222,328817,0.0-6.1-17.1,go_nogo_deval,460,,<img class = center src='/static/experiments/go_nogo_deval/images/purple_rhombus.png'></img>,32,850,test,purple_rhombus,go2,32,5,1,,,,,,,-1,-1,1400,0,ITI,poldrack-single-stim,223,330218,0.0-6.1-18.1,go_nogo_deval,460,,<div></div>,32,1400,test,,,,,,,,,,,,-1,-1,500,0,fixation,poldrack-single-stim,224,330720,0.0-6.1-19.1,go_nogo_deval,460,,<div class = centerbox><div class = fixation>+</div></div>,none,500,test,,,,,,,,,,,,406,32,850,0,stim,poldrack-single-stim,225,331572,0.0-6.1-20.1,go_nogo_deval,460,,<img class = center src='/static/experiments/go_nogo_deval/images/purple_rhombus.png'></img>,32,850,test,purple_rhombus,go2,32,6,1,,,,,,,-1,-1,1400,0,ITI,poldrack-single-stim,226,332974,0.0-6.1-21.1,go_nogo_deval,460,,<div></div>,32,1400,test,,,,,,,,,,,,-1,-1,500,0,fixation,poldrack-single-stim,227,333476,0.0-6.1-22.1,go_nogo_deval,460,,<div class = centerbox><div class = fixation>+</div></div>,none,500,test,,,,,,,,,,,,419,32,850,0,stim,poldrack-single-stim,228,334327,0.0-6.1-23.1,go_nogo_deval,460,,<img class = center src='/static/experiments/go_nogo_deval/images/red_circle.png'></img>,32,850,test,red_circle,go1,32,7,1,,,,,,,-1,-1,1400,0,ITI,poldrack-single-stim,229,335729,0.0-6.1-24.1,go_nogo_deval,460,,<div></div>,32,1400,test,,,,,,,,,,,,-1,-1,500,0,fixation,poldrack-single-stim,230,336229,0.0-6.1-25.1,go_nogo_deval,460,,<div class = centerbox><div class = fixation>+</div></div>,none,500,test,,,,,,,,,,,,-1,-1,850,0,stim,poldrack-single-stim,231,337081,0.0-6.1-26.1,go_nogo_deval,460,,<img class = center src='/static/experiments/go_nogo_deval/images/blue_triangle.png'></img>,32,850,test,blue_triangle,nogo2,-1,8,1,,,,,,,-1,-1,1400,0,ITI,poldrack-single-stim,232,338483,0.0-6.1-27.1,go_nogo_deval,460,,<div></div>,32,1400,test,,,,,,,,,,,,-1,-1,500,0,fixation,poldrack-single-stim,233,338985,0.0-6.1-28.1,go_nogo_deval,460,,<div class = centerbox><div class = fixation>+</div></div>,none,500,test,,,,,,,,,,,,401,32,850,0,stim,poldrack-single-stim,234,339837,0.0-6.1-29.1,go_nogo_deval,460,,<img class = center src='/static/experiments/go_nogo_deval/images/green_pentagon.png'></img>,32,850,test,green_pentagon,nogo1,-1,9,1,,,,,,,-1,-1,1400,0,ITI,poldrack-single-stim,235,341239,0.0-6.1-30.1,go_nogo_deval,460,,<div></div>,32,1400,test,,,,,,,,,,,,-1,-1,500,0,fixation,poldrack-single-stim,236,341740,0.0-6.1-31.1,go_nogo_deval,460,,<div class = centerbox><div class = fixation>+</div></div>,none,500,test,,,,,,,,,,,,480,32,850,0,stim,poldrack-single-stim,237,342591,0.0-6.1-32.1,go_nogo_deval,460,,<img class = center src='/static/experiments/go_nogo_deval/images/purple_rhombus.png'></img>,32,850,test,purple_rhombus,go2,32,10,1,,,,,,,-1,-1,1400,0,ITI,poldrack-single-stim,238,343993,0.0-6.1-33.1,go_nogo_deval,460,,<div></div>,32,1400,test,,,,,,,,,,,,-1,-1,500,0,fixation,poldrack-single-stim,239,344495,0.0-6.1-34.1,go_nogo_deval,460,,<div class = centerbox><div class = fixation>+</div></div>,none,500,test,,,,,,,,,,,,459,32,850,0,stim,poldrack-single-stim,240,345347,0.0-6.1-35.1,go_nogo_deval,460,,<img class = center src='/static/experiments/go_nogo_deval/images/red_circle.png'></img>,32,850,test,red_circle,go1,32,11,1,,,,,,,-1,-1,1400,0,ITI,poldrack-single-stim,241,346749,0.0-6.1-36.1,go_nogo_deval,460,,<div></div>,32,1400,test,,,,,,,,,,,,-1,-1,500,0,fixation,poldrack-single-stim,242,347251,0.0-6.1-37.1,go_nogo_deval,460,,<div class = centerbox><div class = fixation>+</div></div>,none,500,test,,,,,,,,,,,,346,32,850,0,stim,poldrack-single-stim,243,348102,0.0-6.1-38.1,go_nogo_deval,460,,<img class = center src='/static/experiments/go_nogo_deval/images/purple_rhombus.png'></img>,32,850,test,purple_rhombus,go2,32,12,1,,,,,,,-1,-1,1400,0,ITI,poldrack-single-stim,244,349503,0.0-6.1-39.1,go_nogo_deval,460,,<div></div>,32,1400,test,,,,,,,,,,,,-1,-1,500,0,fixation,poldrack-single-stim,245,350005,0.0-6.1-40.1,go_nogo_deval,460,,<div class = centerbox><div class = fixation>+</div></div>,none,500,test,,,,,,,,,,,,495,32,850,0,stim,poldrack-single-stim,246,350857,0.0-6.1-41.1,go_nogo_deval,460,,<img class = center src='/static/experiments/go_nogo_deval/images/purple_rhombus.png'></img>,32,850,test,purple_rhombus,go2,32,13,1,,,,,,,-1,-1,1400,0,ITI,poldrack-single-stim,247,352258,0.0-6.1-42.1,go_nogo_deval,460,,<div></div>,32,1400,test,,,,,,,,,,,,-1,-1,500,0,fixation,poldrack-single-stim,248,352759,0.0-6.1-43.1,go_nogo_deval,460,,<div class = centerbox><div class = fixation>+</div></div>,none,500,test,,,,,,,,,,,,384,32,850,0,stim,poldrack-single-stim,249,353610,0.0-6.1-44.1,go_nogo_deval,460,,<img class = center src='/static/experiments/go_nogo_deval/images/purple_rhombus.png'></img>,32,850,test,purple_rhombus,go2,32,14,1,,,,,,,-1,-1,1400,0,ITI,poldrack-single-stim,250,355012,0.0-6.1-45.1,go_nogo_deval,460,,<div></div>,32,1400,test,,,,,,,,,,,,-1,-1,500,0,fixation,poldrack-single-stim,251,355514,0.0-6.1-46.1,go_nogo_deval,460,,<div class = centerbox><div class = fixation>+</div></div>,none,500,test,,,,,,,,,,,,465,32,850,0,stim,poldrack-single-stim,252,356366,0.0-6.1-47.1,go_nogo_deval,460,,<img class = center src='/static/experiments/go_nogo_deval/images/red_circle.png'></img>,32,850,test,red_circle,go1,32,15,1,,,,,,,-1,-1,1400,0,ITI,poldrack-single-stim,253,357768,0.0-6.1-48.1,go_nogo_deval,460,,<div></div>,32,1400,test,,,,,,,,,,,,-1,-1,500,0,fixation,poldrack-single-stim,254,358269,0.0-6.1-49.1,go_nogo_deval,460,,<div class = centerbox><div class = fixation>+</div></div>,none,500,test,,,,,,,,,,,,-1,-1,850,0,stim,poldrack-single-stim,255,359121,0.0-6.1-50.1,go_nogo_deval,460,,<img class = center src='/static/experiments/go_nogo_deval/images/blue_triangle.png'></img>,32,850,test,blue_triangle,nogo2,-1,16,1,,,,,,,-1,-1,1400,0,ITI,poldrack-single-stim,256,360523,0.0-6.1-51.1,go_nogo_deval,460,,<div></div>,32,1400,test,,,,,,,,,,,,-1,-1,500,0,fixation,poldrack-single-stim,257,361024,0.0-6.1-52.1,go_nogo_deval,460,,<div class = centerbox><div class = fixation>+</div></div>,none,500,test,,,,,,,,,,,,445,32,850,0,stim,poldrack-single-stim,258,361876,0.0-6.1-53.1,go_nogo_deval,460,,<img class = center src='/static/experiments/go_nogo_deval/images/red_circle.png'></img>,32,850,test,red_circle,go1,32,17,1,,,,,,,-1,-1,1400,0,ITI,poldrack-single-stim,259,363278,0.0-6.1-54.1,go_nogo_deval,460,,<div></div>,32,1400,test,,,,,,,,,,,,-1,-1,500,0,fixation,poldrack-single-stim,260,363780,0.0-6.1-55.1,go_nogo_deval,460,,<div class = centerbox><div class = fixation>+</div></div>,none,500,test,,,,,,,,,,,,423,32,850,0,stim,poldrack-single-stim,261,364631,0.0-6.1-56.1,go_nogo_deval,460,,<img class = center src='/static/experiments/go_nogo_deval/images/purple_rhombus.png'></img>,32,850,test,purple_rhombus,go2,32,18,1,,,,,,,-1,-1,1400,0,ITI,poldrack-single-stim,262,366034,0.0-6.1-57.1,go_nogo_deval,460,,<div></div>,32,1400,test,,,,,,,,,,,,-1,-1,500,0,fixation,poldrack-single-stim,263,366536,0.0-6.1-58.1,go_nogo_deval,460,,<div class = centerbox><div class = fixation>+</div></div>,none,500,test,,,,,,,,,,,,355,32,850,0,stim,poldrack-single-stim,264,367388,0.0-6.1-59.1,go_nogo_deval,460,,<img class = center src='/static/experiments/go_nogo_deval/images/red_circle.png'></img>,32,850,test,red_circle,go1,32,19,1,,,,,,,-1,-1,1400,0,ITI,poldrack-single-stim,265,368789,0.0-6.1-60.1,go_nogo_deval,460,,<div></div>,32,1400,test,,,,,,,,,,,,-1,-1,500,0,fixation,poldrack-single-stim,266,369291,0.0-6.1-61.1,go_nogo_deval,460,,<div class = centerbox><div class = fixation>+</div></div>,none,500,test,,,,,,,,,,,,503,32,850,0,stim,poldrack-single-stim,267,370142,0.0-6.1-62.1,go_nogo_deval,460,,<img class = center src='/static/experiments/go_nogo_deval/images/purple_rhombus.png'></img>,32,850,test,purple_rhombus,go2,32,20,1,,,,,,,-1,-1,1400,0,ITI,poldrack-single-stim,268,371543,0.0-6.1-63.1,go_nogo_deval,460,,<div></div>,32,1400,test,,,,,,,,,,,,-1,-1,500,0,fixation,poldrack-single-stim,269,372045,0.0-6.1-64.1,go_nogo_deval,460,,<div class = centerbox><div class = fixation>+</div></div>,none,500,test,,,,,,,,,,,,449,32,850,0,stim,poldrack-single-stim,270,372897,0.0-6.1-65.1,go_nogo_deval,460,,<img class = center src='/static/experiments/go_nogo_deval/images/red_circle.png'></img>,32,850,test,red_circle,go1,32,21,1,,,,,,,-1,-1,1400,0,ITI,poldrack-single-stim,271,374298,0.0-6.1-66.1,go_nogo_deval,460,,<div></div>,32,1400,test,,,,,,,,,,,,-1,-1,500,0,fixation,poldrack-single-stim,272,374800,0.0-6.1-67.1,go_nogo_deval,460,,<div class = centerbox><div class = fixation>+</div></div>,none,500,test,,,,,,,,,,,,-1,-1,850,0,stim,poldrack-single-stim,273,375651,0.0-6.1-68.1,go_nogo_deval,460,,<img class = center src='/static/experiments/go_nogo_deval/images/green_pentagon.png'></img>,32,850,test,green_pentagon,nogo1,-1,22,1,,,,,,,-1,-1,1400,0,ITI,poldrack-single-stim,274,377052,0.0-6.1-69.1,go_nogo_deval,460,,<div></div>,32,1400,test,,,,,,,,,,,,-1,-1,500,0,fixation,poldrack-single-stim,275,377553,0.0-6.1-70.1,go_nogo_deval,460,,<div class = centerbox><div class = fixation>+</div></div>,none,500,test,,,,,,,,,,,,419,32,850,0,stim,poldrack-single-stim,276,378406,0.0-6.1-71.1,go_nogo_deval,460,,<img class = center src='/static/experiments/go_nogo_deval/images/red_circle.png'></img>,32,850,test,red_circle,go1,32,23,1,,,,,,,-1,-1,1400,0,ITI,poldrack-single-stim,277,379807,0.0-6.1-72.1,go_nogo_deval,460,,<div></div>,32,1400,test,,,,,,,,,,,,-1,-1,500,0,fixation,poldrack-single-stim,278,380309,0.0-6.1-73.1,go_nogo_deval,460,,<div class = centerbox><div class = fixation>+</div></div>,none,500,test,,,,,,,,,,,,443,32,850,0,stim,poldrack-single-stim,279,381160,0.0-6.1-74.1,go_nogo_deval,460,,<img class = center src='/static/experiments/go_nogo_deval/images/red_circle.png'></img>,32,850,test,red_circle,go1,32,24,1,,,,,,,-1,-1,1400,0,ITI,poldrack-single-stim,280,382561,0.0-6.1-75.1,go_nogo_deval,460,,<div></div>,32,1400,test,,,,,,,,,,,,-1,-1,500,0,fixation,poldrack-single-stim,281,383063,0.0-6.1-76.1,go_nogo_deval,460,,<div class = centerbox><div class = fixation>+</div></div>,none,500,test,,,,,,,,,,,,-1,-1,850,0,stim,poldrack-single-stim,282,383915,0.0-6.1-77.1,go_nogo_deval,460,,<img class = center src='/static/experiments/go_nogo_deval/images/green_pentagon.png'></img>,32,850,test,green_pentagon,nogo1,-1,25,1,,,,,,,-1,-1,1400,0,ITI,poldrack-single-stim,283,385317,0.0-6.1-78.1,go_nogo_deval,460,,<div></div>,32,1400,test,,,,,,,,,,,,-1,-1,500,0,fixation,poldrack-single-stim,284,385819,0.0-6.1-79.1,go_nogo_deval,460,,<div class = centerbox><div class = fixation>+</div></div>,none,500,test,,,,,,,,,,,,446,32,850,0,stim,poldrack-single-stim,285,386671,0.0-6.1-80.1,go_nogo_deval,460,,<img class = center src='/static/experiments/go_nogo_deval/images/red_circle.png'></img>,32,850,test,red_circle,go1,32,26,1,,,,,,,-1,-1,1400,0,ITI,poldrack-single-stim,286,388073,0.0-6.1-81.1,go_nogo_deval,460,,<div></div>,32,1400,test,,,,,,,,,,,,-1,-1,500,0,fixation,poldrack-single-stim,287,388575,0.0-6.1-82.1,go_nogo_deval,460,,<div class = centerbox><div class = fixation>+</div></div>,none,500,test,,,,,,,,,,,,367,32,850,0,stim,poldrack-single-stim,288,389425,0.0-6.1-83.1,go_nogo_deval,460,,<img class = center src='/static/experiments/go_nogo_deval/images/red_circle.png'></img>,32,850,test,red_circle,go1,32,27,1,,,,,,,-1,-1,1400,0,ITI,poldrack-single-stim,289,390827,0.0-6.1-84.1,go_nogo_deval,460,,<div></div>,32,1400,test,,,,,,,,,,,,-1,-1,500,0,fixation,poldrack-single-stim,290,391329,0.0-6.1-85.1,go_nogo_deval,460,,<div class = centerbox><div class = fixation>+</div></div>,none,500,test,,,,,,,,,,,,-1,-1,850,0,stim,poldrack-single-stim,291,392181,0.0-6.1-86.1,go_nogo_deval,460,,<img class = center src='/static/experiments/go_nogo_deval/images/blue_triangle.png'></img>,32,850,test,blue_triangle,nogo2,-1,28,1,,,,,,,-1,-1,1400,0,ITI,poldrack-single-stim,292,393582,0.0-6.1-87.1,go_nogo_deval,460,,<div></div>,32,1400,test,,,,,,,,,,,,-1,-1,500,0,fixation,poldrack-single-stim,293,394083,0.0-6.1-88.1,go_nogo_deval,460,,<div class = centerbox><div class = fixation>+</div></div>,none,500,test,,,,,,,,,,,,573,32,850,0,stim,poldrack-single-stim,294,394935,0.0-6.1-89.1,go_nogo_deval,460,,<img class = center src='/static/experiments/go_nogo_deval/images/purple_rhombus.png'></img>,32,850,test,purple_rhombus,go2,32,29,1,,,,,,,-1,-1,1400,0,ITI,poldrack-single-stim,295,396337,0.0-6.1-90.1,go_nogo_deval,460,,<div></div>,32,1400,test,,,,,,,,,,,,-1,-1,500,0,fixation,poldrack-single-stim,296,396838,0.0-6.1-91.1,go_nogo_deval,460,,<div class = centerbox><div class = fixation>+</div></div>,none,500,test,,,,,,,,,,,,407,32,850,0,stim,poldrack-single-stim,297,397690,0.0-6.1-92.1,go_nogo_deval,460,,<img class = center src='/static/experiments/go_nogo_deval/images/purple_rhombus.png'></img>,32,850,test,purple_rhombus,go2,32,30,1,,,,,,,-1,-1,1400,0,ITI,poldrack-single-stim,298,399090,0.0-6.1-93.1,go_nogo_deval,460,,<div></div>,32,1400,test,,,,,,,,,,,,-1,-1,500,0,fixation,poldrack-single-stim,299,399592,0.0-6.1-94.1,go_nogo_deval,460,,<div class = centerbox><div class = fixation>+</div></div>,none,500,test,,,,,,,,,,,,385,32,850,0,stim,poldrack-single-stim,300,400443,0.0-6.1-95.1,go_nogo_deval,460,,<img class = center src='/static/experiments/go_nogo_deval/images/green_pentagon.png'></img>,32,850,test,green_pentagon,nogo1,-1,31,1,,,,,,,-1,-1,1400,0,ITI,poldrack-single-stim,301,401845,0.0-6.1-96.1,go_nogo_deval,460,,<div></div>,32,1400,test,,,,,,,,,,,,-1,-1,500,0,fixation,poldrack-single-stim,302,402347,0.0-6.1-97.1,go_nogo_deval,460,,<div class = centerbox><div class = fixation>+</div></div>,none,500,test,,,,,,,,,,,,-1,-1,850,0,stim,poldrack-single-stim,303,403199,0.0-6.1-98.1,go_nogo_deval,460,,<img class = center src='/static/experiments/go_nogo_deval/images/blue_triangle.png'></img>,32,850,test,blue_triangle,nogo2,-1,32,1,,,,,,,-1,-1,1400,0,ITI,poldrack-single-stim,304,404600,0.0-6.1-99.1,go_nogo_deval,460,,<div></div>,32,1400,test,,,,,,,,,,,,-1,-1,500,0,fixation,poldrack-single-stim,305,405102,0.0-6.1-100.1,go_nogo_deval,460,,<div class = centerbox><div class = fixation>+</div></div>,none,500,test,,,,,,,,,,,,366,32,850,0,stim,poldrack-single-stim,306,405954,0.0-6.1-101.1,go_nogo_deval,460,,<img class = center src='/static/experiments/go_nogo_deval/images/purple_rhombus.png'></img>,32,850,test,purple_rhombus,go2,32,33,1,,,,,,,-1,-1,1400,0,ITI,poldrack-single-stim,307,407356,0.0-6.1-102.1,go_nogo_deval,460,,<div></div>,32,1400,test,,,,,,,,,,,,-1,-1,500,0,fixation,poldrack-single-stim,308,407857,0.0-6.1-103.1,go_nogo_deval,460,,<div class = centerbox><div class = fixation>+</div></div>,none,500,test,,,,,,,,,,,,334,32,850,0,stim,poldrack-single-stim,309,408709,0.0-6.1-104.1,go_nogo_deval,460,,<img class = center src='/static/experiments/go_nogo_deval/images/purple_rhombus.png'></img>,32,850,test,purple_rhombus,go2,32,34,1,,,,,,,-1,-1,1400,0,ITI,poldrack-single-stim,310,410110,0.0-6.1-105.1,go_nogo_deval,460,,<div></div>,32,1400,test,,,,,,,,,,,,-1,-1,500,0,fixation,poldrack-single-stim,311,410611,0.0-6.1-106.1,go_nogo_deval,460,,<div class = centerbox><div class = fixation>+</div></div>,none,500,test,,,,,,,,,,,,413,32,850,0,stim,poldrack-single-stim,312,411463,0.0-6.1-107.1,go_nogo_deval,460,,<img class = center src='/static/experiments/go_nogo_deval/images/purple_rhombus.png'></img>,32,850,test,purple_rhombus,go2,32,35,1,,,,,,,-1,-1,1400,0,ITI,poldrack-single-stim,313,412865,0.0-6.1-108.1,go_nogo_deval,460,,<div></div>,32,1400,test,,,,,,,,,,,,-1,-1,500,0,fixation,poldrack-single-stim,314,413366,0.0-6.1-109.1,go_nogo_deval,460,,<div class = centerbox><div class = fixation>+</div></div>,none,500,test,,,,,,,,,,,,-1,-1,850,0,stim,poldrack-single-stim,315,414217,0.0-6.1-110.1,go_nogo_deval,460,,<img class = center src='/static/experiments/go_nogo_deval/images/green_pentagon.png'></img>,32,850,test,green_pentagon,nogo1,-1,36,1,,,,,,,-1,-1,1400,0,ITI,poldrack-single-stim,316,415619,0.0-6.1-111.1,go_nogo_deval,460,,<div></div>,32,1400,test,,,,,,,,,,,,-1,-1,500,0,fixation,poldrack-single-stim,317,416121,0.0-6.1-112.1,go_nogo_deval,460,,<div class = centerbox><div class = fixation>+</div></div>,none,500,test,,,,,,,,,,,,428,32,850,0,stim,poldrack-single-stim,318,416973,0.0-6.1-113.1,go_nogo_deval,460,,<img class = center src='/static/experiments/go_nogo_deval/images/red_circle.png'></img>,32,850,test,red_circle,go1,32,37,1,,,,,,,-1,-1,1400,0,ITI,poldrack-single-stim,319,418374,0.0-6.1-114.1,go_nogo_deval,460,,<div></div>,32,1400,test,,,,,,,,,,,,-1,-1,500,0,fixation,poldrack-single-stim,320,418875,0.0-6.1-115.1,go_nogo_deval,460,,<div class = centerbox><div class = fixation>+</div></div>,none,500,test,,,,,,,,,,,,341,32,850,0,stim,poldrack-single-stim,321,419726,0.0-6.1-116.1,go_nogo_deval,460,,<img class = center src='/static/experiments/go_nogo_deval/images/red_circle.png'></img>,32,850,test,red_circle,go1,32,38,1,,,,,,,-1,-1,1400,0,ITI,poldrack-single-stim,322,421128,0.0-6.1-117.1,go_nogo_deval,460,,<div></div>,32,1400,test,,,,,,,,,,,,-1,-1,500,0,fixation,poldrack-single-stim,323,421631,0.0-6.1-118.1,go_nogo_deval,460,,<div class = centerbox><div class = fixation>+</div></div>,none,500,test,,,,,,,,,,,,-1,-1,850,0,stim,poldrack-single-stim,324,422483,0.0-6.1-119.1,go_nogo_deval,460,,<img class = center src='/static/experiments/go_nogo_deval/images/blue_triangle.png'></img>,32,850,test,blue_triangle,nogo2,-1,39,1,,,,,,,-1,-1,1400,0,ITI,poldrack-single-stim,325,423885,0.0-6.1-120.1,go_nogo_deval,460,,<div></div>,32,1400,test,,,,,,,,,,,,-1,-1,500,0,fixation,poldrack-single-stim,326,424387,0.0-6.1-121.1,go_nogo_deval,460,,<div class = centerbox><div class = fixation>+</div></div>,none,500,test,,,,,,,,,,,,-1,-1,850,0,stim,poldrack-single-stim,327,425239,0.0-6.1-122.1,go_nogo_deval,460,,<img class = center src='/static/experiments/go_nogo_deval/images/green_pentagon.png'></img>,32,850,test,green_pentagon,nogo1,-1,40,1,,,,,,,-1,-1,1400,0,ITI,poldrack-single-stim,328,426640,0.0-6.1-123.1,go_nogo_deval,460,,<div></div>,32,1400,test,,,,,,,,,,,,-1,-1,500,0,fixation,poldrack-single-stim,329,427141,0.0-6.1-124.1,go_nogo_deval,460,,<div class = centerbox><div class = fixation>+</div></div>,none,500,test,,,,,,,,,,,,-1,-1,850,0,stim,poldrack-single-stim,330,427992,0.0-6.1-125.1,go_nogo_deval,460,,<img class = center src='/static/experiments/go_nogo_deval/images/blue_triangle.png'></img>,32,850,test,blue_triangle,nogo2,-1,41,1,,,,,,,-1,-1,1400,0,ITI,poldrack-single-stim,331,429393,0.0-6.1-126.1,go_nogo_deval,460,,<div></div>,32,1400,test,,,,,,,,,,,,-1,-1,500,0,fixation,poldrack-single-stim,332,429895,0.0-6.1-127.1,go_nogo_deval,460,,<div class = centerbox><div class = fixation>+</div></div>,none,500,test,,,,,,,,,,,,-1,-1,850,0,stim,poldrack-single-stim,333,430747,0.0-6.1-128.1,go_nogo_deval,460,,<img class = center src='/static/experiments/go_nogo_deval/images/blue_triangle.png'></img>,32,850,test,blue_triangle,nogo2,-1,42,1,,,,,,,-1,-1,1400,0,ITI,poldrack-single-stim,334,432148,0.0-6.1-129.1,go_nogo_deval,460,,<div></div>,32,1400,test,,,,,,,,,,,,-1,-1,500,0,fixation,poldrack-single-stim,335,432650,0.0-6.1-130.1,go_nogo_deval,460,,<div class = centerbox><div class = fixation>+</div></div>,none,500,test,,,,,,,,,,,,404,32,850,0,stim,poldrack-single-stim,336,433501,0.0-6.1-131.1,go_nogo_deval,460,,<img class = center src='/static/experiments/go_nogo_deval/images/green_pentagon.png'></img>,32,850,test,green_pentagon,nogo1,-1,43,1,,,,,,,-1,-1,1400,0,ITI,poldrack-single-stim,337,434903,0.0-6.1-132.1,go_nogo_deval,460,,<div></div>,32,1400,test,,,,,,,,,,,,-1,-1,500,0,fixation,poldrack-single-stim,338,435404,0.0-6.1-133.1,go_nogo_deval,460,,<div class = centerbox><div class = fixation>+</div></div>,none,500,test,,,,,,,,,,,,541,32,850,0,stim,poldrack-single-stim,339,436255,0.0-6.1-134.1,go_nogo_deval,460,,<img class = center src='/static/experiments/go_nogo_deval/images/purple_rhombus.png'></img>,32,850,test,purple_rhombus,go2,32,44,1,,,,,,,-1,-1,1400,0,ITI,poldrack-single-stim,340,437657,0.0-6.1-135.1,go_nogo_deval,460,,<div></div>,32,1400,test,,,,,,,,,,,,-1,-1,500,0,fixation,poldrack-single-stim,341,438159,0.0-6.1-136.1,go_nogo_deval,460,,<div class = centerbox><div class = fixation>+</div></div>,none,500,test,,,,,,,,,,,,474,32,850,0,stim,poldrack-single-stim,342,439010,0.0-6.1-137.1,go_nogo_deval,460,,<img class = center src='/static/experiments/go_nogo_deval/images/red_circle.png'></img>,32,850,test,red_circle,go1,32,45,1,,,,,,,-1,-1,1400,0,ITI,poldrack-single-stim,343,440411,0.0-6.1-138.1,go_nogo_deval,460,,<div></div>,32,1400,test,,,,,,,,,,,,-1,-1,500,0,fixation,poldrack-single-stim,344,440914,0.0-6.1-139.1,go_nogo_deval,460,,<div class = centerbox><div class = fixation>+</div></div>,none,500,test,,,,,,,,,,,,554,32,850,0,stim,poldrack-single-stim,345,441766,0.0-6.1-140.1,go_nogo_deval,460,,<img class = center src='/static/experiments/go_nogo_deval/images/purple_rhombus.png'></img>,32,850,test,purple_rhombus,go2,32,46,1,,,,,,,-1,-1,1400,0,ITI,poldrack-single-stim,346,443167,0.0-6.1-141.1,go_nogo_deval,460,,<div></div>,32,1400,test,,,,,,,,,,,,-1,-1,500,0,fixation,poldrack-single-stim,347,443669,0.0-6.1-142.1,go_nogo_deval,460,,<div class = centerbox><div class = fixation>+</div></div>,none,500,test,,,,,,,,,,,,477,32,850,0,stim,poldrack-single-stim,348,444521,0.0-6.1-143.1,go_nogo_deval,460,,<img class = center src='/static/experiments/go_nogo_deval/images/red_circle.png'></img>,32,850,test,red_circle,go1,32,47,1,,,,,,,-1,-1,1400,0,ITI,poldrack-single-stim,349,445923,0.0-6.1-144.1,go_nogo_deval,460,,<div></div>,32,1400,test,,,,,,,,,,,,10438,13,10438,0,practice-no-stop-feedback,poldrack-single-stim,350,456364,0.0-6.2-0.2,go_nogo_deval,460,,"<div class = centerbox><p class = block-text><br>Please take this time to read your feedback and to take a short break! Press enter to continue</p><p class = block-text><strong>Average reaction time:  436 ms. Accuracy: 94%</strong></p><p class = block-text>We have detected a number of trials that <strong>required no response</strong>, where a response was made.  Please <strong>ensure that you do not respond </strong>to shapes that require no response</p></div>",13,10438,,,,,,,,,,,,,-1,-1,500,0,fixation,poldrack-single-stim,351,456866,0.0-6.2-1.2,go_nogo_deval,460,,<div class = centerbox><div class = fixation>+</div></div>,none,500,test,,,,,,,,,,,,409,32,850,0,stim,poldrack-single-stim,352,457718,0.0-6.2-2.2,go_nogo_deval,460,,<img class = center src='/static/experiments/go_nogo_deval/images/red_circle.png'></img>,32,850,test,red_circle,go1,32,0,2,,,,,,,-1,-1,1400,0,ITI,poldrack-single-stim,353,459120,0.0-6.2-3.2,go_nogo_deval,460,,<div></div>,32,1400,test,,,,,,,,,,,,-1,-1,500,0,fixation,poldrack-single-stim,354,459622,0.0-6.2-4.2,go_nogo_deval,460,,<div class = centerbox><div class = fixation>+</div></div>,none,500,test,,,,,,,,,,,,330,32,850,0,stim,poldrack-single-stim,355,460473,0.0-6.2-5.2,go_nogo_deval,460,,<img class = center src='/static/experiments/go_nogo_deval/images/red_circle.png'></img>,32,850,test,red_circle,go1,32,1,2,,,,,,,-1,-1,1400,0,ITI,poldrack-single-stim,356,461874,0.0-6.2-6.2,go_nogo_deval,460,,<div></div>,32,1400,test,,,,,,,,,,,,-1,-1,500,0,fixation,poldrack-single-stim,357,462376,0.0-6.2-7.2,go_nogo_deval,460,,<div class = centerbox><div class = fixation>+</div></div>,none,500,test,,,,,,,,,,,,490,32,850,0,stim,poldrack-single-stim,358,463227,0.0-6.2-8.2,go_nogo_deval,460,,<img class = center src='/static/experiments/go_nogo_deval/images/purple_rhombus.png'></img>,32,850,test,purple_rhombus,go2,32,2,2,,,,,,,-1,-1,1400,0,ITI,poldrack-single-stim,359,464628,0.0-6.2-9.2,go_nogo_deval,460,,<div></div>,32,1400,test,,,,,,,,,,,,-1,-1,500,0,fixation,poldrack-single-stim,360,465129,0.0-6.2-10.2,go_nogo_deval,460,,<div class = centerbox><div class = fixation>+</div></div>,none,500,test,,,,,,,,,,,,-1,-1,850,0,stim,poldrack-single-stim,361,465981,0.0-6.2-11.2,go_nogo_deval,460,,<img class = center src='/static/experiments/go_nogo_deval/images/blue_triangle.png'></img>,32,850,test,blue_triangle,nogo2,-1,3,2,,,,,,,-1,-1,1400,0,ITI,poldrack-single-stim,362,467383,0.0-6.2-12.2,go_nogo_deval,460,,<div></div>,32,1400,test,,,,,,,,,,,,-1,-1,500,0,fixation,poldrack-single-stim,363,467884,0.0-6.2-13.2,go_nogo_deval,460,,<div class = centerbox><div class = fixation>+</div></div>,none,500,test,,,,,,,,,,,,-1,-1,850,0,stim,poldrack-single-stim,364,468736,0.0-6.2-14.2,go_nogo_deval,460,,<img class = center src='/static/experiments/go_nogo_deval/images/blue_triangle.png'></img>,32,850,test,blue_triangle,nogo2,-1,4,2,,,,,,,-1,-1,1400,0,ITI,poldrack-single-stim,365,470137,0.0-6.2-15.2,go_nogo_deval,460,,<div></div>,32,1400,test,,,,,,,,,,,,-1,-1,500,0,fixation,poldrack-single-stim,366,470639,0.0-6.2-16.2,go_nogo_deval,460,,<div class = centerbox><div class = fixation>+</div></div>,none,500,test,,,,,,,,,,,,496,32,850,0,stim,poldrack-single-stim,367,471491,0.0-6.2-17.2,go_nogo_deval,460,,<img class = center src='/static/experiments/go_nogo_deval/images/purple_rhombus.png'></img>,32,850,test,purple_rhombus,go2,32,5,2,,,,,,,-1,-1,1400,0,ITI,poldrack-single-stim,368,472892,0.0-6.2-18.2,go_nogo_deval,460,,<div></div>,32,1400,test,,,,,,,,,,,,-1,-1,500,0,fixation,poldrack-single-stim,369,473393,0.0-6.2-19.2,go_nogo_deval,460,,<div class = centerbox><div class = fixation>+</div></div>,none,500,test,,,,,,,,,,,,441,32,850,0,stim,poldrack-single-stim,370,474245,0.0-6.2-20.2,go_nogo_deval,460,,<img class = center src='/static/experiments/go_nogo_deval/images/green_pentagon.png'></img>,32,850,test,green_pentagon,nogo1,-1,6,2,,,,,,,-1,-1,1400,0,ITI,poldrack-single-stim,371,475647,0.0-6.2-21.2,go_nogo_deval,460,,<div></div>,32,1400,test,,,,,,,,,,,,-1,-1,500,0,fixation,poldrack-single-stim,372,476148,0.0-6.2-22.2,go_nogo_deval,460,,<div class = centerbox><div class = fixation>+</div></div>,none,500,test,,,,,,,,,,,,-1,-1,850,0,stim,poldrack-single-stim,373,477000,0.0-6.2-23.2,go_nogo_deval,460,,<img class = center src='/static/experiments/go_nogo_deval/images/green_pentagon.png'></img>,32,850,test,green_pentagon,nogo1,-1,7,2,,,,,,,-1,-1,1400,0,ITI,poldrack-single-stim,374,478401,0.0-6.2-24.2,go_nogo_deval,460,,<div></div>,32,1400,test,,,,,,,,,,,,-1,-1,500,0,fixation,poldrack-single-stim,375,478903,0.0-6.2-25.2,go_nogo_deval,460,,<div class = centerbox><div class = fixation>+</div></div>,none,500,test,,,,,,,,,,,,-1,-1,850,0,stim,poldrack-single-stim,376,479754,0.0-6.2-26.2,go_nogo_deval,460,,<img class = center src='/static/experiments/go_nogo_deval/images/green_pentagon.png'></img>,32,850,test,green_pentagon,nogo1,-1,8,2,,,,,,,-1,-1,1400,0,ITI,poldrack-single-stim,377,481156,0.0-6.2-27.2,go_nogo_deval,460,,<div></div>,32,1400,test,,,,,,,,,,,,-1,-1,500,0,fixation,poldrack-single-stim,378,481657,0.0-6.2-28.2,go_nogo_deval,460,,<div class = centerbox><div class = fixation>+</div></div>,none,500,test,,,,,,,,,,,,357,32,850,0,stim,poldrack-single-stim,379,482509,0.0-6.2-29.2,go_nogo_deval,460,,<img class = center src='/static/experiments/go_nogo_deval/images/red_circle.png'></img>,32,850,test,red_circle,go1,32,9,2,,,,,,,-1,-1,1400,0,ITI,poldrack-single-stim,380,483911,0.0-6.2-30.2,go_nogo_deval,460,,<div></div>,32,1400,test,,,,,,,,,,,,-1,-1,500,0,fixation,poldrack-single-stim,381,484411,0.0-6.2-31.2,go_nogo_deval,460,,<div class = centerbox><div class = fixation>+</div></div>,none,500,test,,,,,,,,,,,,437,32,850,0,stim,poldrack-single-stim,382,485263,0.0-6.2-32.2,go_nogo_deval,460,,<img class = center src='/static/experiments/go_nogo_deval/images/purple_rhombus.png'></img>,32,850,test,purple_rhombus,go2,32,10,2,,,,,,,-1,-1,1400,0,ITI,poldrack-single-stim,383,486665,0.0-6.2-33.2,go_nogo_deval,460,,<div></div>,32,1400,test,,,,,,,,,,,,-1,-1,500,0,fixation,poldrack-single-stim,384,487166,0.0-6.2-34.2,go_nogo_deval,460,,<div class = centerbox><div class = fixation>+</div></div>,none,500,test,,,,,,,,,,,,394,32,850,0,stim,poldrack-single-stim,385,488017,0.0-6.2-35.2,go_nogo_deval,460,,<img class = center src='/static/experiments/go_nogo_deval/images/purple_rhombus.png'></img>,32,850,test,purple_rhombus,go2,32,11,2,,,,,,,-1,-1,1400,0,ITI,poldrack-single-stim,386,489419,0.0-6.2-36.2,go_nogo_deval,460,,<div></div>,32,1400,test,,,,,,,,,,,,-1,-1,500,0,fixation,poldrack-single-stim,387,489921,0.0-6.2-37.2,go_nogo_deval,460,,<div class = centerbox><div class = fixation>+</div></div>,none,500,test,,,,,,,,,,,,339,32,850,0,stim,poldrack-single-stim,388,490773,0.0-6.2-38.2,go_nogo_deval,460,,<img class = center src='/static/experiments/go_nogo_deval/images/purple_rhombus.png'></img>,32,850,test,purple_rhombus,go2,32,12,2,,,,,,,-1,-1,1400,0,ITI,poldrack-single-stim,389,492174,0.0-6.2-39.2,go_nogo_deval,460,,<div></div>,32,1400,test,,,,,,,,,,,,-1,-1,500,0,fixation,poldrack-single-stim,390,492676,0.0-6.2-40.2,go_nogo_deval,460,,<div class = centerbox><div class = fixation>+</div></div>,none,500,test,,,,,,,,,,,,-1,-1,850,0,stim,poldrack-single-stim,391,493528,0.0-6.2-41.2,go_nogo_deval,460,,<img class = center src='/static/experiments/go_nogo_deval/images/green_pentagon.png'></img>,32,850,test,green_pentagon,nogo1,-1,13,2,,,,,,,-1,-1,1400,0,ITI,poldrack-single-stim,392,494929,0.0-6.2-42.2,go_nogo_deval,460,,<div></div>,32,1400,test,,,,,,,,,,,,-1,-1,500,0,fixation,poldrack-single-stim,393,495432,0.0-6.2-43.2,go_nogo_deval,460,,<div class = centerbox><div class = fixation>+</div></div>,none,500,test,,,,,,,,,,,,-1,-1,850,0,stim,poldrack-single-stim,394,496284,0.0-6.2-44.2,go_nogo_deval,460,,<img class = center src='/static/experiments/go_nogo_deval/images/green_pentagon.png'></img>,32,850,test,green_pentagon,nogo1,-1,14,2,,,,,,,-1,-1,1400,0,ITI,poldrack-single-stim,395,497686,0.0-6.2-45.2,go_nogo_deval,460,,<div></div>,32,1400,test,,,,,,,,,,,,-1,-1,500,0,fixation,poldrack-single-stim,396,498188,0.0-6.2-46.2,go_nogo_deval,460,,<div class = centerbox><div class = fixation>+</div></div>,none,500,test,,,,,,,,,,,,-1,-1,850,0,stim,poldrack-single-stim,397,499040,0.0-6.2-47.2,go_nogo_deval,460,,<img class = center src='/static/experiments/go_nogo_deval/images/blue_triangle.png'></img>,32,850,test,blue_triangle,nogo2,-1,15,2,,,,,,,-1,-1,1400,0,ITI,poldrack-single-stim,398,500441,0.0-6.2-48.2,go_nogo_deval,460,,<div></div>,32,1400,test,,,,,,,,,,,,-1,-1,500,0,fixation,poldrack-single-stim,399,500943,0.0-6.2-49.2,go_nogo_deval,460,,<div class = centerbox><div class = fixation>+</div></div>,none,500,test,,,,,,,,,,,,376,32,850,0,stim,poldrack-single-stim,400,501794,0.0-6.2-50.2,go_nogo_deval,460,,<img class = center src='/static/experiments/go_nogo_deval/images/red_circle.png'></img>,32,850,test,red_circle,go1,32,16,2,,,,,,,-1,-1,1400,0,ITI,poldrack-single-stim,401,503195,0.0-6.2-51.2,go_nogo_deval,460,,<div></div>,32,1400,test,,,,,,,,,,,,-1,-1,500,0,fixation,poldrack-single-stim,402,503698,0.0-6.2-52.2,go_nogo_deval,460,,<div class = centerbox><div class = fixation>+</div></div>,none,500,test,,,,,,,,,,,,321,32,850,0,stim,poldrack-single-stim,403,504549,0.0-6.2-53.2,go_nogo_deval,460,,<img class = center src='/static/experiments/go_nogo_deval/images/red_circle.png'></img>,32,850,test,red_circle,go1,32,17,2,,,,,,,-1,-1,1400,0,ITI,poldrack-single-stim,404,505950,0.0-6.2-54.2,go_nogo_deval,460,,<div></div>,32,1400,test,,,,,,,,,,,,-1,-1,500,0,fixation,poldrack-single-stim,405,506452,0.0-6.2-55.2,go_nogo_deval,460,,<div class = centerbox><div class = fixation>+</div></div>,none,500,test,,,,,,,,,,,,334,32,850,0,stim,poldrack-single-stim,406,507303,0.0-6.2-56.2,go_nogo_deval,460,,<img class = center src='/static/experiments/go_nogo_deval/images/red_circle.png'></img>,32,850,test,red_circle,go1,32,18,2,,,,,,,-1,-1,1400,0,ITI,poldrack-single-stim,407,508705,0.0-6.2-57.2,go_nogo_deval,460,,<div></div>,32,1400,test,,,,,,,,,,,,-1,-1,500,0,fixation,poldrack-single-stim,408,509206,0.0-6.2-58.2,go_nogo_deval,460,,<div class = centerbox><div class = fixation>+</div></div>,none,500,test,,,,,,,,,,,,370,32,850,0,stim,poldrack-single-stim,409,510058,0.0-6.2-59.2,go_nogo_deval,460,,<img class = center src='/static/experiments/go_nogo_deval/images/red_circle.png'></img>,32,850,test,red_circle,go1,32,19,2,,,,,,,-1,-1,1400,0,ITI,poldrack-single-stim,410,511460,0.0-6.2-60.2,go_nogo_deval,460,,<div></div>,32,1400,test,,,,,,,,,,,,-1,-1,500,0,fixation,poldrack-single-stim,411,511962,0.0-6.2-61.2,go_nogo_deval,460,,<div class = centerbox><div class = fixation>+</div></div>,none,500,test,,,,,,,,,,,,-1,-1,850,0,stim,poldrack-single-stim,412,512814,0.0-6.2-62.2,go_nogo_deval,460,,<img class = center src='/static/experiments/go_nogo_deval/images/blue_triangle.png'></img>,32,850,test,blue_triangle,nogo2,-1,20,2,,,,,,,-1,-1,1400,0,ITI,poldrack-single-stim,413,514215,0.0-6.2-63.2,go_nogo_deval,460,,<div></div>,32,1400,test,,,,,,,,,,,,-1,-1,500,0,fixation,poldrack-single-stim,414,514717,0.0-6.2-64.2,go_nogo_deval,460,,<div class = centerbox><div class = fixation>+</div></div>,none,500,test,,,,,,,,,,,,-1,-1,850,0,stim,poldrack-single-stim,415,515568,0.0-6.2-65.2,go_nogo_deval,460,,<img class = center src='/static/experiments/go_nogo_deval/images/blue_triangle.png'></img>,32,850,test,blue_triangle,nogo2,-1,21,2,,,,,,,-1,-1,1400,0,ITI,poldrack-single-stim,416,516970,0.0-6.2-66.2,go_nogo_deval,460,,<div></div>,32,1400,test,,,,,,,,,,,,-1,-1,500,0,fixation,poldrack-single-stim,417,517472,0.0-6.2-67.2,go_nogo_deval,460,,<div class = centerbox><div class = fixation>+</div></div>,none,500,test,,,,,,,,,,,,430,32,850,0,stim,poldrack-single-stim,418,518323,0.0-6.2-68.2,go_nogo_deval,460,,<img class = center src='/static/experiments/go_nogo_deval/images/purple_rhombus.png'></img>,32,850,test,purple_rhombus,go2,32,22,2,,,,,,,-1,-1,1400,0,ITI,poldrack-single-stim,419,519724,0.0-6.2-69.2,go_nogo_deval,460,,<div></div>,32,1400,test,,,,,,,,,,,,-1,-1,500,0,fixation,poldrack-single-stim,420,520226,0.0-6.2-70.2,go_nogo_deval,460,,<div class = centerbox><div class = fixation>+</div></div>,none,500,test,,,,,,,,,,,,364,32,850,0,stim,poldrack-single-stim,421,521077,0.0-6.2-71.2,go_nogo_deval,460,,<img class = center src='/static/experiments/go_nogo_deval/images/purple_rhombus.png'></img>,32,850,test,purple_rhombus,go2,32,23,2,,,,,,,-1,-1,1400,0,ITI,poldrack-single-stim,422,522479,0.0-6.2-72.2,go_nogo_deval,460,,<div></div>,32,1400,test,,,,,,,,,,,,-1,-1,500,0,fixation,poldrack-single-stim,423,522980,0.0-6.2-73.2,go_nogo_deval,460,,<div class = centerbox><div class = fixation>+</div></div>,none,500,test,,,,,,,,,,,,445,32,850,0,stim,poldrack-single-stim,424,523832,0.0-6.2-74.2,go_nogo_deval,460,,<img class = center src='/static/experiments/go_nogo_deval/images/purple_rhombus.png'></img>,32,850,test,purple_rhombus,go2,32,24,2,,,,,,,-1,-1,1400,0,ITI,poldrack-single-stim,425,525233,0.0-6.2-75.2,go_nogo_deval,460,,<div></div>,32,1400,test,,,,,,,,,,,,-1,-1,500,0,fixation,poldrack-single-stim,426,525735,0.0-6.2-76.2,go_nogo_deval,460,,<div class = centerbox><div class = fixation>+</div></div>,none,500,test,,,,,,,,,,,,-1,-1,850,0,stim,poldrack-single-stim,427,526587,0.0-6.2-77.2,go_nogo_deval,460,,<img class = center src='/static/experiments/go_nogo_deval/images/green_pentagon.png'></img>,32,850,test,green_pentagon,nogo1,-1,25,2,,,,,,,-1,-1,1400,0,ITI,poldrack-single-stim,428,527988,0.0-6.2-78.2,go_nogo_deval,460,,<div></div>,32,1400,test,,,,,,,,,,,,-1,-1,500,0,fixation,poldrack-single-stim,429,528489,0.0-6.2-79.2,go_nogo_deval,460,,<div class = centerbox><div class = fixation>+</div></div>,none,500,test,,,,,,,,,,,,-1,-1,850,0,stim,poldrack-single-stim,430,529341,0.0-6.2-80.2,go_nogo_deval,460,,<img class = center src='/static/experiments/go_nogo_deval/images/green_pentagon.png'></img>,32,850,test,green_pentagon,nogo1,-1,26,2,,,,,,,-1,-1,1400,0,ITI,poldrack-single-stim,431,530742,0.0-6.2-81.2,go_nogo_deval,460,,<div></div>,32,1400,test,,,,,,,,,,,,-1,-1,500,0,fixation,poldrack-single-stim,432,531244,0.0-6.2-82.2,go_nogo_deval,460,,<div class = centerbox><div class = fixation>+</div></div>,none,500,test,,,,,,,,,,,,439,32,850,0,stim,poldrack-single-stim,433,532096,0.0-6.2-83.2,go_nogo_deval,460,,<img class = center src='/static/experiments/go_nogo_deval/images/purple_rhombus.png'></img>,32,850,test,purple_rhombus,go2,32,27,2,,,,,,,-1,-1,1400,0,ITI,poldrack-single-stim,434,533497,0.0-6.2-84.2,go_nogo_deval,460,,<div></div>,32,1400,test,,,,,,,,,,,,-1,-1,500,0,fixation,poldrack-single-stim,435,533998,0.0-6.2-85.2,go_nogo_deval,460,,<div class = centerbox><div class = fixation>+</div></div>,none,500,test,,,,,,,,,,,,385,32,850,0,stim,poldrack-single-stim,436,534850,0.0-6.2-86.2,go_nogo_deval,460,,<img class = center src='/static/experiments/go_nogo_deval/images/purple_rhombus.png'></img>,32,850,test,purple_rhombus,go2,32,28,2,,,,,,,-1,-1,1400,0,ITI,poldrack-single-stim,437,536252,0.0-6.2-87.2,go_nogo_deval,460,,<div></div>,32,1400,test,,,,,,,,,,,,-1,-1,500,0,fixation,poldrack-single-stim,438,536752,0.0-6.2-88.2,go_nogo_deval,460,,<div class = centerbox><div class = fixation>+</div></div>,none,500,test,,,,,,,,,,,,409,32,850,0,stim,poldrack-single-stim,439,537604,0.0-6.2-89.2,go_nogo_deval,460,,<img class = center src='/static/experiments/go_nogo_deval/images/red_circle.png'></img>,32,850,test,red_circle,go1,32,29,2,,,,,,,-1,-1,1400,0,ITI,poldrack-single-stim,440,539005,0.0-6.2-90.2,go_nogo_deval,460,,<div></div>,32,1400,test,,,,,,,,,,,,-1,-1,500,0,fixation,poldrack-single-stim,441,539507,0.0-6.2-91.2,go_nogo_deval,460,,<div class = centerbox><div class = fixation>+</div></div>,none,500,test,,,,,,,,,,,,-1,-1,850,0,stim,poldrack-single-stim,442,540359,0.0-6.2-92.2,go_nogo_deval,460,,<img class = center src='/static/experiments/go_nogo_deval/images/blue_triangle.png'></img>,32,850,test,blue_triangle,nogo2,-1,30,2,,,,,,,-1,-1,1400,0,ITI,poldrack-single-stim,443,541761,0.0-6.2-93.2,go_nogo_deval,460,,<div></div>,32,1400,test,,,,,,,,,,,,-1,-1,500,0,fixation,poldrack-single-stim,444,542262,0.0-6.2-94.2,go_nogo_deval,460,,<div class = centerbox><div class = fixation>+</div></div>,none,500,test,,,,,,,,,,,,434,32,850,0,stim,poldrack-single-stim,445,543113,0.0-6.2-95.2,go_nogo_deval,460,,<img class = center src='/static/experiments/go_nogo_deval/images/red_circle.png'></img>,32,850,test,red_circle,go1,32,31,2,,,,,,,-1,-1,1400,0,ITI,poldrack-single-stim,446,544515,0.0-6.2-96.2,go_nogo_deval,460,,<div></div>,32,1400,test,,,,,,,,,,,,-1,-1,500,0,fixation,poldrack-single-stim,447,545017,0.0-6.2-97.2,go_nogo_deval,460,,<div class = centerbox><div class = fixation>+</div></div>,none,500,test,,,,,,,,,,,,414,32,850,0,stim,poldrack-single-stim,448,545868,0.0-6.2-98.2,go_nogo_deval,460,,<img class = center src='/static/experiments/go_nogo_deval/images/purple_rhombus.png'></img>,32,850,test,purple_rhombus,go2,32,32,2,,,,,,,-1,-1,1400,0,ITI,poldrack-single-stim,449,547270,0.0-6.2-99.2,go_nogo_deval,460,,<div></div>,32,1400,test,,,,,,,,,,,,-1,-1,500,0,fixation,poldrack-single-stim,450,547772,0.0-6.2-100.2,go_nogo_deval,460,,<div class = centerbox><div class = fixation>+</div></div>,none,500,test,,,,,,,,,,,,381,32,850,0,stim,poldrack-single-stim,451,548624,0.0-6.2-101.2,go_nogo_deval,460,,<img class = center src='/static/experiments/go_nogo_deval/images/purple_rhombus.png'></img>,32,850,test,purple_rhombus,go2,32,33,2,,,,,,,-1,-1,1400,0,ITI,poldrack-single-stim,452,550025,0.0-6.2-102.2,go_nogo_deval,460,,<div></div>,32,1400,test,,,,,,,,,,,,-1,-1,500,0,fixation,poldrack-single-stim,453,550527,0.0-6.2-103.2,go_nogo_deval,460,,<div class = centerbox><div class = fixation>+</div></div>,none,500,test,,,,,,,,,,,,416,32,850,0,stim,poldrack-single-stim,454,551379,0.0-6.2-104.2,go_nogo_deval,460,,<img class = center src='/static/experiments/go_nogo_deval/images/purple_rhombus.png'></img>,32,850,test,purple_rhombus,go2,32,34,2,,,,,,,-1,-1,1400,0,ITI,poldrack-single-stim,455,552781,0.0-6.2-105.2,go_nogo_deval,460,,<div></div>,32,1400,test,,,,,,,,,,,,-1,-1,500,0,fixation,poldrack-single-stim,456,553281,0.0-6.2-106.2,go_nogo_deval,460,,<div class = centerbox><div class = fixation>+</div></div>,none,500,test,,,,,,,,,,,,317,32,850,0,stim,poldrack-single-stim,457,554133,0.0-6.2-107.2,go_nogo_deval,460,,<img class = center src='/static/experiments/go_nogo_deval/images/red_circle.png'></img>,32,850,test,red_circle,go1,32,35,2,,,,,,,-1,-1,1400,0,ITI,poldrack-single-stim,458,555535,0.0-6.2-108.2,go_nogo_deval,460,,<div></div>,32,1400,test,,,,,,,,,,,,-1,-1,500,0,fixation,poldrack-single-stim,459,556037,0.0-6.2-109.2,go_nogo_deval,460,,<div class = centerbox><div class = fixation>+</div></div>,none,500,test,,,,,,,,,,,,-1,-1,850,0,stim,poldrack-single-stim,460,556889,0.0-6.2-110.2,go_nogo_deval,460,,<img class = center src='/static/experiments/go_nogo_deval/images/green_pentagon.png'></img>,32,850,test,green_pentagon,nogo1,-1,36,2,,,,,,,-1,-1,1400,0,ITI,poldrack-single-stim,461,558290,0.0-6.2-111.2,go_nogo_deval,460,,<div></div>,32,1400,test,,,,,,,,,,,,-1,-1,500,0,fixation,poldrack-single-stim,462,558793,0.0-6.2-112.2,go_nogo_deval,460,,<div class = centerbox><div class = fixation>+</div></div>,none,500,test,,,,,,,,,,,,363,32,850,0,stim,poldrack-single-stim,463,559643,0.0-6.2-113.2,go_nogo_deval,460,,<img class = center src='/static/experiments/go_nogo_deval/images/red_circle.png'></img>,32,850,test,red_circle,go1,32,37,2,,,,,,,-1,-1,1400,0,ITI,poldrack-single-stim,464,561045,0.0-6.2-114.2,go_nogo_deval,460,,<div></div>,32,1400,test,,,,,,,,,,,,-1,-1,500,0,fixation,poldrack-single-stim,465,561547,0.0-6.2-115.2,go_nogo_deval,460,,<div class = centerbox><div class = fixation>+</div></div>,none,500,test,,,,,,,,,,,,309,32,850,0,stim,poldrack-single-stim,466,562399,0.0-6.2-116.2,go_nogo_deval,460,,<img class = center src='/static/experiments/go_nogo_deval/images/red_circle.png'></img>,32,850,test,red_circle,go1,32,38,2,,,,,,,-1,-1,1400,0,ITI,poldrack-single-stim,467,563800,0.0-6.2-117.2,go_nogo_deval,460,,<div></div>,32,1400,test,,,,,,,,,,,,-1,-1,500,0,fixation,poldrack-single-stim,468,564302,0.0-6.2-118.2,go_nogo_deval,460,,<div class = centerbox><div class = fixation>+</div></div>,none,500,test,,,,,,,,,,,,310,32,850,0,stim,poldrack-single-stim,469,565152,0.0-6.2-119.2,go_nogo_deval,460,,<img class = center src='/static/experiments/go_nogo_deval/images/red_circle.png'></img>,32,850,test,red_circle,go1,32,39,2,,,,,,,-1,-1,1400,0,ITI,poldrack-single-stim,470,566554,0.0-6.2-120.2,go_nogo_deval,460,,<div></div>,32,1400,test,,,,,,,,,,,,-1,-1,500,0,fixation,poldrack-single-stim,471,567056,0.0-6.2-121.2,go_nogo_deval,460,,<div class = centerbox><div class = fixation>+</div></div>,none,500,test,,,,,,,,,,,,380,32,850,0,stim,poldrack-single-stim,472,567908,0.0-6.2-122.2,go_nogo_deval,460,,<img class = center src='/static/experiments/go_nogo_deval/images/blue_triangle.png'></img>,32,850,test,blue_triangle,nogo2,-1,40,2,,,,,,,-1,-1,1400,0,ITI,poldrack-single-stim,473,569309,0.0-6.2-123.2,go_nogo_deval,460,,<div></div>,32,1400,test,,,,,,,,,,,,-1,-1,500,0,fixation,poldrack-single-stim,474,569810,0.0-6.2-124.2,go_nogo_deval,460,,<div class = centerbox><div class = fixation>+</div></div>,none,500,test,,,,,,,,,,,,448,32,850,0,stim,poldrack-single-stim,475,570662,0.0-6.2-125.2,go_nogo_deval,460,,<img class = center src='/static/experiments/go_nogo_deval/images/purple_rhombus.png'></img>,32,850,test,purple_rhombus,go2,32,41,2,,,,,,,-1,-1,1400,0,ITI,poldrack-single-stim,476,572064,0.0-6.2-126.2,go_nogo_deval,460,,<div></div>,32,1400,test,,,,,,,,,,,,-1,-1,500,0,fixation,poldrack-single-stim,477,572565,0.0-6.2-127.2,go_nogo_deval,460,,<div class = centerbox><div class = fixation>+</div></div>,none,500,test,,,,,,,,,,,,406,32,850,0,stim,poldrack-single-stim,478,573417,0.0-6.2-128.2,go_nogo_deval,460,,<img class = center src='/static/experiments/go_nogo_deval/images/purple_rhombus.png'></img>,32,850,test,purple_rhombus,go2,32,42,2,,,,,,,-1,-1,1400,0,ITI,poldrack-single-stim,479,574818,0.0-6.2-129.2,go_nogo_deval,460,,<div></div>,32,1400,test,,,,,,,,,,,,-1,-1,500,0,fixation,poldrack-single-stim,480,575320,0.0-6.2-130.2,go_nogo_deval,460,,<div class = centerbox><div class = fixation>+</div></div>,none,500,test,,,,,,,,,,,,-1,-1,850,0,stim,poldrack-single-stim,481,576172,0.0-6.2-131.2,go_nogo_deval,460,,<img class = center src='/static/experiments/go_nogo_deval/images/blue_triangle.png'></img>,32,850,test,blue_triangle,nogo2,-1,43,2,,,,,,,-1,-1,1400,0,ITI,poldrack-single-stim,482,577574,0.0-6.2-132.2,go_nogo_deval,460,,<div></div>,32,1400,test,,,,,,,,,,,,-1,-1,500,0,fixation,poldrack-single-stim,483,578076,0.0-6.2-133.2,go_nogo_deval,460,,<div class = centerbox><div class = fixation>+</div></div>,none,500,test,,,,,,,,,,,,430,32,850,0,stim,poldrack-single-stim,484,578927,0.0-6.2-134.2,go_nogo_deval,460,,<img class = center src='/static/experiments/go_nogo_deval/images/red_circle.png'></img>,32,850,test,red_circle,go1,32,44,2,,,,,,,-1,-1,1400,0,ITI,poldrack-single-stim,485,580328,0.0-6.2-135.2,go_nogo_deval,460,,<div></div>,32,1400,test,,,,,,,,,,,,-1,-1,500,0,fixation,poldrack-single-stim,486,580830,0.0-6.2-136.2,go_nogo_deval,460,,<div class = centerbox><div class = fixation>+</div></div>,none,500,test,,,,,,,,,,,,386,32,850,0,stim,poldrack-single-stim,487,581682,0.0-6.2-137.2,go_nogo_deval,460,,<img class = center src='/static/experiments/go_nogo_deval/images/red_circle.png'></img>,32,850,test,red_circle,go1,32,45,2,,,,,,,-1,-1,1400,0,ITI,poldrack-single-stim,488,583083,0.0-6.2-138.2,go_nogo_deval,460,,<div></div>,32,1400,test,,,,,,,,,,,,-1,-1,500,0,fixation,poldrack-single-stim,489,583585,0.0-6.2-139.2,go_nogo_deval,460,,<div class = centerbox><div class = fixation>+</div></div>,none,500,test,,,,,,,,,,,,309,32,850,0,stim,poldrack-single-stim,490,584437,0.0-6.2-140.2,go_nogo_deval,460,,<img class = center src='/static/experiments/go_nogo_deval/images/red_circle.png'></img>,32,850,test,red_circle,go1,32,46,2,,,,,,,-1,-1,1400,0,ITI,poldrack-single-stim,491,585838,0.0-6.2-141.2,go_nogo_deval,460,,<div></div>,32,1400,test,,,,,,,,,,,,-1,-1,500,0,fixation,poldrack-single-stim,492,586339,0.0-6.2-142.2,go_nogo_deval,460,,<div class = centerbox><div class = fixation>+</div></div>,none,500,test,,,,,,,,,,,,457,32,850,0,stim,poldrack-single-stim,493,587191,0.0-6.2-143.2,go_nogo_deval,460,,<img class = center src='/static/experiments/go_nogo_deval/images/purple_rhombus.png'></img>,32,850,test,purple_rhombus,go2,32,47,2,,,,,,,-1,-1,1400,0,ITI,poldrack-single-stim,494,588593,0.0-6.2-144.2,go_nogo_deval,460,,<div></div>,32,1400,test,,,,,,,,,,,,6986,13,6986,0,practice-no-stop-feedback,poldrack-single-stim,495,595584,0.0-6.3-0.3,go_nogo_deval,460,,"<div class = centerbox><p class = block-text><br>Please take this time to read your feedback and to take a short break! Press enter to continue</p><p class = block-text><strong>Average reaction time:  392 ms. Accuracy: 96%</strong></p><p class = block-text>We have detected a number of trials that <strong>required no response</strong>, where a response was made.  Please <strong>ensure that you do not respond </strong>to shapes that require no response</p></div>",13,6986,,,,,,,,,,,,,-1,-1,500,0,fixation,poldrack-single-stim,496,596086,0.0-6.3-1.3,go_nogo_deval,460,,<div class = centerbox><div class = fixation>+</div></div>,none,500,test,,,,,,,,,,,,386,32,850,0,stim,poldrack-single-stim,497,596938,0.0-6.3-2.3,go_nogo_deval,460,,<img class = center src='/static/experiments/go_nogo_deval/images/red_circle.png'></img>,32,850,test,red_circle,go1,32,0,3,,,,,,,-1,-1,1400,0,ITI,poldrack-single-stim,498,598339,0.0-6.3-3.3,go_nogo_deval,460,,<div></div>,32,1400,test,,,,,,,,,,,,-1,-1,500,0,fixation,poldrack-single-stim,499,598841,0.0-6.3-4.3,go_nogo_deval,460,,<div class = centerbox><div class = fixation>+</div></div>,none,500,test,,,,,,,,,,,,432,32,850,0,stim,poldrack-single-stim,500,599693,0.0-6.3-5.3,go_nogo_deval,460,,<img class = center src='/static/experiments/go_nogo_deval/images/purple_rhombus.png'></img>,32,850,test,purple_rhombus,go2,32,1,3,,,,,,,-1,-1,1400,0,ITI,poldrack-single-stim,501,601095,0.0-6.3-6.3,go_nogo_deval,460,,<div></div>,32,1400,test,,,,,,,,,,,,-1,-1,500,0,fixation,poldrack-single-stim,502,601596,0.0-6.3-7.3,go_nogo_deval,460,,<div class = centerbox><div class = fixation>+</div></div>,none,500,test,,,,,,,,,,,,343,32,850,0,stim,poldrack-single-stim,503,602447,0.0-6.3-8.3,go_nogo_deval,460,,<img class = center src='/static/experiments/go_nogo_deval/images/red_circle.png'></img>,32,850,test,red_circle,go1,32,2,3,,,,,,,-1,-1,1400,0,ITI,poldrack-single-stim,504,603849,0.0-6.3-9.3,go_nogo_deval,460,,<div></div>,32,1400,test,,,,,,,,,,,,-1,-1,500,0,fixation,poldrack-single-stim,505,604351,0.0-6.3-10.3,go_nogo_deval,460,,<div class = centerbox><div class = fixation>+</div></div>,none,500,test,,,,,,,,,,,,289,32,850,0,stim,poldrack-single-stim,506,605203,0.0-6.3-11.3,go_nogo_deval,460,,<img class = center src='/static/experiments/go_nogo_deval/images/red_circle.png'></img>,32,850,test,red_circle,go1,32,3,3,,,,,,,-1,-1,1400,0,ITI,poldrack-single-stim,507,606604,0.0-6.3-12.3,go_nogo_deval,460,,<div></div>,32,1400,test,,,,,,,,,,,,-1,-1,500,0,fixation,poldrack-single-stim,508,607105,0.0-6.3-13.3,go_nogo_deval,460,,<div class = centerbox><div class = fixation>+</div></div>,none,500,test,,,,,,,,,,,,403,32,850,0,stim,poldrack-single-stim,509,607956,0.0-6.3-14.3,go_nogo_deval,460,,<img class = center src='/static/experiments/go_nogo_deval/images/green_pentagon.png'></img>,32,850,test,green_pentagon,nogo1,-1,4,3,,,,,,,-1,-1,1400,0,ITI,poldrack-single-stim,510,609358,0.0-6.3-15.3,go_nogo_deval,460,,<div></div>,32,1400,test,,,,,,,,,,,,-1,-1,500,0,fixation,poldrack-single-stim,511,609860,0.0-6.3-16.3,go_nogo_deval,460,,<div class = centerbox><div class = fixation>+</div></div>,none,500,test,,,,,,,,,,,,-1,-1,850,0,stim,poldrack-single-stim,512,610711,0.0-6.3-17.3,go_nogo_deval,460,,<img class = center src='/static/experiments/go_nogo_deval/images/green_pentagon.png'></img>,32,850,test,green_pentagon,nogo1,-1,5,3,,,,,,,-1,-1,1400,0,ITI,poldrack-single-stim,513,612111,0.0-6.3-18.3,go_nogo_deval,460,,<div></div>,32,1400,test,,,,,,,,,,,,-1,-1,500,0,fixation,poldrack-single-stim,514,612613,0.0-6.3-19.3,go_nogo_deval,460,,<div class = centerbox><div class = fixation>+</div></div>,none,500,test,,,,,,,,,,,,408,32,850,0,stim,poldrack-single-stim,515,613465,0.0-6.3-20.3,go_nogo_deval,460,,<img class = center src='/static/experiments/go_nogo_deval/images/purple_rhombus.png'></img>,32,850,test,purple_rhombus,go2,32,6,3,,,,,,,-1,-1,1400,0,ITI,poldrack-single-stim,516,614867,0.0-6.3-21.3,go_nogo_deval,460,,<div></div>,32,1400,test,,,,,,,,,,,,-1,-1,500,0,fixation,poldrack-single-stim,517,615369,0.0-6.3-22.3,go_nogo_deval,460,,<div class = centerbox><div class = fixation>+</div></div>,none,500,test,,,,,,,,,,,,-1,-1,850,0,stim,poldrack-single-stim,518,616220,0.0-6.3-23.3,go_nogo_deval,460,,<img class = center src='/static/experiments/go_nogo_deval/images/blue_triangle.png'></img>,32,850,test,blue_triangle,nogo2,-1,7,3,,,,,,,-1,-1,1400,0,ITI,poldrack-single-stim,519,617621,0.0-6.3-24.3,go_nogo_deval,460,,<div></div>,32,1400,test,,,,,,,,,,,,-1,-1,500,0,fixation,poldrack-single-stim,520,618123,0.0-6.3-25.3,go_nogo_deval,460,,<div class = centerbox><div class = fixation>+</div></div>,none,500,test,,,,,,,,,,,,-1,-1,850,0,stim,poldrack-single-stim,521,618974,0.0-6.3-26.3,go_nogo_deval,460,,<img class = center src='/static/experiments/go_nogo_deval/images/green_pentagon.png'></img>,32,850,test,green_pentagon,nogo1,-1,8,3,,,,,,,-1,-1,1400,0,ITI,poldrack-single-stim,522,620375,0.0-6.3-27.3,go_nogo_deval,460,,<div></div>,32,1400,test,,,,,,,,,,,,-1,-1,500,0,fixation,poldrack-single-stim,523,620877,0.0-6.3-28.3,go_nogo_deval,460,,<div class = centerbox><div class = fixation>+</div></div>,none,500,test,,,,,,,,,,,,300,32,850,0,stim,poldrack-single-stim,524,621729,0.0-6.3-29.3,go_nogo_deval,460,,<img class = center src='/static/experiments/go_nogo_deval/images/purple_rhombus.png'></img>,32,850,test,purple_rhombus,go2,32,9,3,,,,,,,-1,-1,1400,0,ITI,poldrack-single-stim,525,623130,0.0-6.3-30.3,go_nogo_deval,460,,<div></div>,32,1400,test,,,,,,,,,,,,-1,-1,500,0,fixation,poldrack-single-stim,526,623632,0.0-6.3-31.3,go_nogo_deval,460,,<div class = centerbox><div class = fixation>+</div></div>,none,500,test,,,,,,,,,,,,324,32,850,0,stim,poldrack-single-stim,527,624482,0.0-6.3-32.3,go_nogo_deval,460,,<img class = center src='/static/experiments/go_nogo_deval/images/red_circle.png'></img>,32,850,test,red_circle,go1,32,10,3,,,,,,,-1,-1,1400,0,ITI,poldrack-single-stim,528,625884,0.0-6.3-33.3,go_nogo_deval,460,,<div></div>,32,1400,test,,,,,,,,,,,,-1,-1,500,0,fixation,poldrack-single-stim,529,626386,0.0-6.3-34.3,go_nogo_deval,460,,<div class = centerbox><div class = fixation>+</div></div>,none,500,test,,,,,,,,,,,,-1,-1,850,0,stim,poldrack-single-stim,530,627238,0.0-6.3-35.3,go_nogo_deval,460,,<img class = center src='/static/experiments/go_nogo_deval/images/green_pentagon.png'></img>,32,850,test,green_pentagon,nogo1,-1,11,3,,,,,,,-1,-1,1400,0,ITI,poldrack-single-stim,531,628640,0.0-6.3-36.3,go_nogo_deval,460,,<div></div>,32,1400,test,,,,,,,,,,,,-1,-1,500,0,fixation,poldrack-single-stim,532,629141,0.0-6.3-37.3,go_nogo_deval,460,,<div class = centerbox><div class = fixation>+</div></div>,none,500,test,,,,,,,,,,,,-1,-1,850,0,stim,poldrack-single-stim,533,629993,0.0-6.3-38.3,go_nogo_deval,460,,<img class = center src='/static/experiments/go_nogo_deval/images/blue_triangle.png'></img>,32,850,test,blue_triangle,nogo2,-1,12,3,,,,,,,-1,-1,1400,0,ITI,poldrack-single-stim,534,631395,0.0-6.3-39.3,go_nogo_deval,460,,<div></div>,32,1400,test,,,,,,,,,,,,-1,-1,500,0,fixation,poldrack-single-stim,535,631896,0.0-6.3-40.3,go_nogo_deval,460,,<div class = centerbox><div class = fixation>+</div></div>,none,500,test,,,,,,,,,,,,-1,-1,850,0,stim,poldrack-single-stim,536,632748,0.0-6.3-41.3,go_nogo_deval,460,,<img class = center src='/static/experiments/go_nogo_deval/images/green_pentagon.png'></img>,32,850,test,green_pentagon,nogo1,-1,13,3,,,,,,,-1,-1,1400,0,ITI,poldrack-single-stim,537,634149,0.0-6.3-42.3,go_nogo_deval,460,,<div></div>,32,1400,test,,,,,,,,,,,,-1,-1,500,0,fixation,poldrack-single-stim,538,634651,0.0-6.3-43.3,go_nogo_deval,460,,<div class = centerbox><div class = fixation>+</div></div>,none,500,test,,,,,,,,,,,,352,32,850,0,stim,poldrack-single-stim,539,635503,0.0-6.3-44.3,go_nogo_deval,460,,<img class = center src='/static/experiments/go_nogo_deval/images/purple_rhombus.png'></img>,32,850,test,purple_rhombus,go2,32,14,3,,,,,,,-1,-1,1400,0,ITI,poldrack-single-stim,540,636904,0.0-6.3-45.3,go_nogo_deval,460,,<div></div>,32,1400,test,,,,,,,,,,,,-1,-1,500,0,fixation,poldrack-single-stim,541,637406,0.0-6.3-46.3,go_nogo_deval,460,,<div class = centerbox><div class = fixation>+</div></div>,none,500,test,,,,,,,,,,,,342,32,850,0,stim,poldrack-single-stim,542,638258,0.0-6.3-47.3,go_nogo_deval,460,,<img class = center src='/static/experiments/go_nogo_deval/images/purple_rhombus.png'></img>,32,850,test,purple_rhombus,go2,32,15,3,,,,,,,-1,-1,1400,0,ITI,poldrack-single-stim,543,639660,0.0-6.3-48.3,go_nogo_deval,460,,<div></div>,32,1400,test,,,,,,,,,,,,-1,-1,500,0,fixation,poldrack-single-stim,544,640161,0.0-6.3-49.3,go_nogo_deval,460,,<div class = centerbox><div class = fixation>+</div></div>,none,500,test,,,,,,,,,,,,434,32,850,0,stim,poldrack-single-stim,545,641013,0.0-6.3-50.3,go_nogo_deval,460,,<img class = center src='/static/experiments/go_nogo_deval/images/red_circle.png'></img>,32,850,test,red_circle,go1,32,16,3,,,,,,,-1,-1,1400,0,ITI,poldrack-single-stim,546,642415,0.0-6.3-51.3,go_nogo_deval,460,,<div></div>,32,1400,test,,,,,,,,,,,,-1,-1,500,0,fixation,poldrack-single-stim,547,642915,0.0-6.3-52.3,go_nogo_deval,460,,<div class = centerbox><div class = fixation>+</div></div>,none,500,test,,,,,,,,,,,,-1,-1,850,0,stim,poldrack-single-stim,548,643767,0.0-6.3-53.3,go_nogo_deval,460,,<img class = center src='/static/experiments/go_nogo_deval/images/green_pentagon.png'></img>,32,850,test,green_pentagon,nogo1,-1,17,3,,,,,,,-1,-1,1400,0,ITI,poldrack-single-stim,549,645169,0.0-6.3-54.3,go_nogo_deval,460,,<div></div>,32,1400,test,,,,,,,,,,,,-1,-1,500,0,fixation,poldrack-single-stim,550,645670,0.0-6.3-55.3,go_nogo_deval,460,,<div class = centerbox><div class = fixation>+</div></div>,none,500,test,,,,,,,,,,,,326,32,850,0,stim,poldrack-single-stim,551,646522,0.0-6.3-56.3,go_nogo_deval,460,,<img class = center src='/static/experiments/go_nogo_deval/images/red_circle.png'></img>,32,850,test,red_circle,go1,32,18,3,,,,,,,-1,-1,1400,0,ITI,poldrack-single-stim,552,647924,0.0-6.3-57.3,go_nogo_deval,460,,<div></div>,32,1400,test,,,,,,,,,,,,-1,-1,500,0,fixation,poldrack-single-stim,553,648425,0.0-6.3-58.3,go_nogo_deval,460,,<div class = centerbox><div class = fixation>+</div></div>,none,500,test,,,,,,,,,,,,-1,-1,850,0,stim,poldrack-single-stim,554,649277,0.0-6.3-59.3,go_nogo_deval,460,,<img class = center src='/static/experiments/go_nogo_deval/images/green_pentagon.png'></img>,32,850,test,green_pentagon,nogo1,-1,19,3,,,,,,,-1,-1,1400,0,ITI,poldrack-single-stim,555,650679,0.0-6.3-60.3,go_nogo_deval,460,,<div></div>,32,1400,test,,,,,,,,,,,,-1,-1,500,0,fixation,poldrack-single-stim,556,651180,0.0-6.3-61.3,go_nogo_deval,460,,<div class = centerbox><div class = fixation>+</div></div>,none,500,test,,,,,,,,,,,,463,32,850,0,stim,poldrack-single-stim,557,652031,0.0-6.3-62.3,go_nogo_deval,460,,<img class = center src='/static/experiments/go_nogo_deval/images/purple_rhombus.png'></img>,32,850,test,purple_rhombus,go2,32,20,3,,,,,,,-1,-1,1400,0,ITI,poldrack-single-stim,558,653433,0.0-6.3-63.3,go_nogo_deval,460,,<div></div>,32,1400,test,,,,,,,,,,,,-1,-1,500,0,fixation,poldrack-single-stim,559,653935,0.0-6.3-64.3,go_nogo_deval,460,,<div class = centerbox><div class = fixation>+</div></div>,none,500,test,,,,,,,,,,,,384,32,850,0,stim,poldrack-single-stim,560,654787,0.0-6.3-65.3,go_nogo_deval,460,,<img class = center src='/static/experiments/go_nogo_deval/images/purple_rhombus.png'></img>,32,850,test,purple_rhombus,go2,32,21,3,,,,,,,-1,-1,1400,0,ITI,poldrack-single-stim,561,656188,0.0-6.3-66.3,go_nogo_deval,460,,<div></div>,32,1400,test,,,,,,,,,,,,-1,-1,500,0,fixation,poldrack-single-stim,562,656690,0.0-6.3-67.3,go_nogo_deval,460,,<div class = centerbox><div class = fixation>+</div></div>,none,500,test,,,,,,,,,,,,421,32,850,0,stim,poldrack-single-stim,563,657540,0.0-6.3-68.3,go_nogo_deval,460,,<img class = center src='/static/experiments/go_nogo_deval/images/red_circle.png'></img>,32,850,test,red_circle,go1,32,22,3,,,,,,,548,32,1400,0,ITI,poldrack-single-stim,564,658941,0.0-6.3-69.3,go_nogo_deval,460,,<div></div>,32,1400,test,,,,,,,,,,,,-1,-1,500,0,fixation,poldrack-single-stim,565,659443,0.0-6.3-70.3,go_nogo_deval,460,,<div class = centerbox><div class = fixation>+</div></div>,none,500,test,,,,,,,,,,,,491,32,850,0,stim,poldrack-single-stim,566,660294,0.0-6.3-71.3,go_nogo_deval,460,,<img class = center src='/static/experiments/go_nogo_deval/images/purple_rhombus.png'></img>,32,850,test,purple_rhombus,go2,32,23,3,,,,,,,-1,-1,1400,0,ITI,poldrack-single-stim,567,661696,0.0-6.3-72.3,go_nogo_deval,460,,<div></div>,32,1400,test,,,,,,,,,,,,-1,-1,500,0,fixation,poldrack-single-stim,568,662198,0.0-6.3-73.3,go_nogo_deval,460,,<div class = centerbox><div class = fixation>+</div></div>,none,500,test,,,,,,,,,,,,436,32,850,0,stim,poldrack-single-stim,569,663049,0.0-6.3-74.3,go_nogo_deval,460,,<img class = center src='/static/experiments/go_nogo_deval/images/red_circle.png'></img>,32,850,test,red_circle,go1,32,24,3,,,,,,