text,rt,key_press,block_duration,timing_post_trial,trial_id,trial_type,trial_index,time_elapsed,internal_node_id,exp_id,subject_ID,view_history,stimulus,possible_responses,stim_duration,exp_stage,stim,go_nogo_type,correct_response,current_trial,current_block,chosenStim,chosenCond,stimLeft,cond_left,stimRight,cond_right<div class = centerbox><p class = center-block-text>Welcome to the task!</p><p class = center-block-text>Press<strong> enter</strong> to continue.</p></div>,2704,13,2704,0,welcome,poldrack-text,0,2706,0.0-0.0,go_nogo_deval,465,,,,,,,,,,,,,,,,,64959,,,,instruction,poldrack-instructions,1,67666,0.0-1.0,go_nogo_deval,465,"[{""page_index"":0,""viewing_time"":3399},{""page_index"":1,""viewing_time"":61560}]",,,,,,,,,,,,,,,,9186,13,9186,0,stop_intro_phase1,poldrack-single-stim,2,77856,0.0-2.0,go_nogo_deval,465,,"<div class = centerbox><p class = block-text>We will now start the practice for the experiment.<br><br>For these trials, you must press the <strong>spacebar </strong> or have <strong>no response</strong> depending on the shape of the stimulus.  Make sure to respond as quickly and accurately as possible to the shape. <br><br> The responses for each shape are as follows: <ul list-text><li>pentagon: spacebar</li><li>triangle: spacebar</li><li>circle: no response</li><li>rhombus: no response</li></ul></p><p class = block-text>Remember these rules before you proceed.</p><p class = block-text>Press <strong> enter</strong> to begin.</p></div>",13,9186,,,,,,,,,,,,,3665,13,3665,0,practice-no-stop-feedback,poldrack-single-stim,3,81523,0.0-3.0-0.0,go_nogo_deval,465,,<div class = centerbox><p class = block-text>We will now start with a practice session. In this practice concentrate on responding quickly and accurately to each stimuli unless it requires no response.</p><p class = block-text>Press enter to continue.</p></div>,13,3665,,,,,,,,,,,,,-1,-1,500,0,prompt_fixation,poldrack-single-stim,4,82026,0.0-3.0-1.0,go_nogo_deval,465,,<div class = centerbox><div class = fixation>+</div></div>,none,500,practice,,,,,,,,,,,,598,32,850,0,stim,poldrack-single-stim,5,82878,0.0-3.0-2.0,go_nogo_deval,465,,<img class = center src='/static/experiments/go_nogo_deval/images/green_pentagon.png'></img>,32,850,practice,green_pentagon,go1,32,0,0,,,,,,,-1,-1,1400,0,ITI,poldrack-single-stim,6,84281,0.0-3.0-3.0,go_nogo_deval,465,,<div></div>,32,1400,practice,,,,,,,,,,,,-1,-1,500,0,prompt_fixation,poldrack-single-stim,7,84783,0.0-3.0-4.0,go_nogo_deval,465,,<div class = centerbox><div class = fixation>+</div></div>,none,500,practice,,,,,,,,,,,,710,32,850,0,stim,poldrack-single-stim,8,85635,0.0-3.0-5.0,go_nogo_deval,465,,<img class = center src='/static/experiments/go_nogo_deval/images/purple_rhombus.png'></img>,32,850,practice,purple_rhombus,nogo2,-1,1,0,,,,,,,-1,-1,1400,0,ITI,poldrack-single-stim,9,87037,0.0-3.0-6.0,go_nogo_deval,465,,<div></div>,32,1400,practice,,,,,,,,,,,,-1,-1,500,0,prompt_fixation,poldrack-single-stim,10,87538,0.0-3.0-7.0,go_nogo_deval,465,,<div class = centerbox><div class = fixation>+</div></div>,none,500,practice,,,,,,,,,,,,588,32,850,0,stim,poldrack-single-stim,11,88390,0.0-3.0-8.0,go_nogo_deval,465,,<img class = center src='/static/experiments/go_nogo_deval/images/green_pentagon.png'></img>,32,850,practice,green_pentagon,go1,32,2,0,,,,,,,-1,-1,1400,0,ITI,poldrack-single-stim,12,89792,0.0-3.0-9.0,go_nogo_deval,465,,<div></div>,32,1400,practice,,,,,,,,,,,,-1,-1,500,0,prompt_fixation,poldrack-single-stim,13,90294,0.0-3.0-10.0,go_nogo_deval,465,,<div class = centerbox><div class = fixation>+</div></div>,none,500,practice,,,,,,,,,,,,531,32,850,0,stim,poldrack-single-stim,14,91146,0.0-3.0-11.0,go_nogo_deval,465,,<img class = center src='/static/experiments/go_nogo_deval/images/red_triangle.png'></img>,32,850,practice,red_triangle,go2,32,3,0,,,,,,,-1,-1,1400,0,ITI,poldrack-single-stim,15,92548,0.0-3.0-12.0,go_nogo_deval,465,,<div></div>,32,1400,practice,,,,,,,,,,,,-1,-1,500,0,prompt_fixation,poldrack-single-stim,16,93050,0.0-3.0-13.0,go_nogo_deval,465,,<div class = centerbox><div class = fixation>+</div></div>,none,500,practice,,,,,,,,,,,,588,32,850,0,stim,poldrack-single-stim,17,93902,0.0-3.0-14.0,go_nogo_deval,465,,<img class = center src='/static/experiments/go_nogo_deval/images/green_pentagon.png'></img>,32,850,practice,green_pentagon,go1,32,4,0,,,,,,,-1,-1,1400,0,ITI,poldrack-single-stim,18,95304,0.0-3.0-15.0,go_nogo_deval,465,,<div></div>,32,1400,practice,,,,,,,,,,,,-1,-1,500,0,prompt_fixation,poldrack-single-stim,19,95805,0.0-3.0-16.0,go_nogo_deval,465,,<div class = centerbox><div class = fixation>+</div></div>,none,500,practice,,,,,,,,,,,,634,32,850,0,stim,poldrack-single-stim,20,96657,0.0-3.0-17.0,go_nogo_deval,465,,<img class = center src='/static/experiments/go_nogo_deval/images/red_triangle.png'></img>,32,850,practice,red_triangle,go2,32,5,0,,,,,,,-1,-1,1400,0,ITI,poldrack-single-stim,21,98058,0.0-3.0-18.0,go_nogo_deval,465,,<div></div>,32,1400,practice,,,,,,,,,,,,-1,-1,500,0,prompt_fixation,poldrack-single-stim,22,98559,0.0-3.0-19.0,go_nogo_deval,465,,<div class = centerbox><div class = fixation>+</div></div>,none,500,practice,,,,,,,,,,,,557,32,850,0,stim,poldrack-single-stim,23,99412,0.0-3.0-20.0,go_nogo_deval,465,,<img class = center src='/static/experiments/go_nogo_deval/images/green_pentagon.png'></img>,32,850,practice,green_pentagon,go1,32,6,0,,,,,,,-1,-1,1400,0,ITI,poldrack-single-stim,24,100814,0.0-3.0-21.0,go_nogo_deval,465,,<div></div>,32,1400,practice,,,,,,,,,,,,-1,-1,500,0,prompt_fixation,poldrack-single-stim,25,101316,0.0-3.0-22.0,go_nogo_deval,465,,<div class = centerbox><div class = fixation>+</div></div>,none,500,practice,,,,,,,,,,,,-1,-1,850,0,stim,poldrack-single-stim,26,102168,0.0-3.0-23.0,go_nogo_deval,465,,<img class = center src='/static/experiments/go_nogo_deval/images/blue_circle.png'></img>,32,850,practice,blue_circle,nogo1,-1,7,0,,,,,,,-1,-1,1400,0,ITI,poldrack-single-stim,27,103570,0.0-3.0-24.0,go_nogo_deval,465,,<div></div>,32,1400,practice,,,,,,,,,,,,-1,-1,500,0,prompt_fixation,poldrack-single-stim,28,104071,0.0-3.0-25.0,go_nogo_deval,465,,<div class = centerbox><div class = fixation>+</div></div>,none,500,practice,,,,,,,,,,,,626,32,850,0,stim,poldrack-single-stim,29,104923,0.0-3.0-26.0,go_nogo_deval,465,,<img class = center src='/static/experiments/go_nogo_deval/images/red_triangle.png'></img>,32,850,practice,red_triangle,go2,32,8,0,,,,,,,-1,-1,1400,0,ITI,poldrack-single-stim,30,106324,0.0-3.0-27.0,go_nogo_deval,465,,<div></div>,32,1400,practice,,,,,,,,,,,,-1,-1,500,0,prompt_fixation,poldrack-single-stim,31,106826,0.0-3.0-28.0,go_nogo_deval,465,,<div class = centerbox><div class = fixation>+</div></div>,none,500,practice,,,,,,,,,,,,638,32,850,0,stim,poldrack-single-stim,32,107678,0.0-3.0-29.0,go_nogo_deval,465,,<img class = center src='/static/experiments/go_nogo_deval/images/green_pentagon.png'></img>,32,850,practice,green_pentagon,go1,32,9,0,,,,,,,-1,-1,1400,0,ITI,poldrack-single-stim,33,109080,0.0-3.0-30.0,go_nogo_deval,465,,<div></div>,32,1400,practice,,,,,,,,,,,,-1,-1,500,0,prompt_fixation,poldrack-single-stim,34,109582,0.0-3.0-31.0,go_nogo_deval,465,,<div class = centerbox><div class = fixation>+</div></div>,none,500,practice,,,,,,,,,,,,437,32,850,0,stim,poldrack-single-stim,35,110434,0.0-3.0-32.0,go_nogo_deval,465,,<img class = center src='/static/experiments/go_nogo_deval/images/red_triangle.png'></img>,32,850,practice,red_triangle,go2,32,10,0,,,,,,,-1,-1,1400,0,ITI,poldrack-single-stim,36,111836,0.0-3.0-33.0,go_nogo_deval,465,,<div></div>,32,1400,practice,,,,,,,,,,,,-1,-1,500,0,prompt_fixation,poldrack-single-stim,37,112337,0.0-3.0-34.0,go_nogo_deval,465,,<div class = centerbox><div class = fixation>+</div></div>,none,500,practice,,,,,,,,,,,,437,32,850,0,stim,poldrack-single-stim,38,113189,0.0-3.0-35.0,go_nogo_deval,465,,<img class = center src='/static/experiments/go_nogo_deval/images/green_pentagon.png'></img>,32,850,practice,green_pentagon,go1,32,11,0,,,,,,,-1,-1,1400,0,ITI,poldrack-single-stim,39,114590,0.0-3.0-36.0,go_nogo_deval,465,,<div></div>,32,1400,practice,,,,,,,,,,,,-1,-1,500,0,prompt_fixation,poldrack-single-stim,40,115091,0.0-3.0-37.0,go_nogo_deval,465,,<div class = centerbox><div class = fixation>+</div></div>,none,500,practice,,,,,,,,,,,,417,32,850,0,stim,poldrack-single-stim,41,115942,0.0-3.0-38.0,go_nogo_deval,465,,<img class = center src='/static/experiments/go_nogo_deval/images/red_triangle.png'></img>,32,850,practice,red_triangle,go2,32,12,0,,,,,,,-1,-1,1400,0,ITI,poldrack-single-stim,42,117344,0.0-3.0-39.0,go_nogo_deval,465,,<div></div>,32,1400,practice,,,,,,,,,,,,-1,-1,500,0,prompt_fixation,poldrack-single-stim,43,117846,0.0-3.0-40.0,go_nogo_deval,465,,<div class = centerbox><div class = fixation>+</div></div>,none,500,practice,,,,,,,,,,,,474,32,850,0,stim,poldrack-single-stim,44,118698,0.0-3.0-41.0,go_nogo_deval,465,,<img class = center src='/static/experiments/go_nogo_deval/images/purple_rhombus.png'></img>,32,850,practice,purple_rhombus,nogo2,-1,13,0,,,,,,,-1,-1,1400,0,ITI,poldrack-single-stim,45,120101,0.0-3.0-42.0,go_nogo_deval,465,,<div></div>,32,1400,practice,,,,,,,,,,,,-1,-1,500,0,prompt_fixation,poldrack-single-stim,46,120602,0.0-3.0-43.0,go_nogo_deval,465,,<div class = centerbox><div class = fixation>+</div></div>,none,500,practice,,,,,,,,,,,,-1,-1,850,0,stim,poldrack-single-stim,47,121454,0.0-3.0-44.0,go_nogo_deval,465,,<img class = center src='/static/experiments/go_nogo_deval/images/purple_rhombus.png'></img>,32,850,practice,purple_rhombus,nogo2,-1,14,0,,,,,,,-1,-1,1400,0,ITI,poldrack-single-stim,48,122856,0.0-3.0-45.0,go_nogo_deval,465,,<div></div>,32,1400,practice,,,,,,,,,,,,-1,-1,500,0,prompt_fixation,poldrack-single-stim,49,123358,0.0-3.0-46.0,go_nogo_deval,465,,<div class = centerbox><div class = fixation>+</div></div>,none,500,practice,,,,,,,,,,,,442,32,850,0,stim,poldrack-single-stim,50,124210,0.0-3.0-47.0,go_nogo_deval,465,,<img class = center src='/static/experiments/go_nogo_deval/images/red_triangle.png'></img>,32,850,practice,red_triangle,go2,32,15,0,,,,,,,-1,-1,1400,0,ITI,poldrack-single-stim,51,125612,0.0-3.0-48.0,go_nogo_deval,465,,<div></div>,32,1400,practice,,,,,,,,,,,,-1,-1,500,0,prompt_fixation,poldrack-single-stim,52,126114,0.0-3.0-49.0,go_nogo_deval,465,,<div class = centerbox><div class = fixation>+</div></div>,none,500,practice,,,,,,,,,,,,-1,-1,850,0,stim,poldrack-single-stim,53,126965,0.0-3.0-50.0,go_nogo_deval,465,,<img class = center src='/static/experiments/go_nogo_deval/images/blue_circle.png'></img>,32,850,practice,blue_circle,nogo1,-1,16,0,,,,,,,-1,-1,1400,0,ITI,poldrack-single-stim,54,128367,0.0-3.0-51.0,go_nogo_deval,465,,<div></div>,32,1400,practice,,,,,,,,,,,,-1,-1,500,0,prompt_fixation,poldrack-single-stim,55,128869,0.0-3.0-52.0,go_nogo_deval,465,,<div class = centerbox><div class = fixation>+</div></div>,none,500,practice,,,,,,,,,,,,-1,-1,850,0,stim,poldrack-single-stim,56,129721,0.0-3.0-53.0,go_nogo_deval,465,,<img class = center src='/static/experiments/go_nogo_deval/images/blue_circle.png'></img>,32,850,practice,blue_circle,nogo1,-1,17,0,,,,,,,-1,-1,1400,0,ITI,poldrack-single-stim,57,131123,0.0-3.0-54.0,go_nogo_deval,465,,<div></div>,32,1400,practice,,,,,,,,,,,,8314,13,8314,0,practice-no-stop-feedback,poldrack-single-stim,58,139438,0.0-4.0,go_nogo_deval,465,,<div class = centerbox><p class = block-text><br>Please take this time to read your feedback and to take a short break! Press enter to continue</p><p class = block-text><strong>Average reaction time:  548 ms. Accuracy: 89%</strong></p><p class = block-text>Done with this practice.</p></div>,13,8314,,,,,,,,,,,,,33491,13,33491,0,main_stop_intro_phase3,poldrack-single-stim,59,172929,0.0-5.0,go_nogo_deval,465,,"<div class = centerbox><p class = block-text>We will now start the main phase of the experiment.<br><br>These trials are the same as the trials that you have just completed. <br><br>The rules for each shape are as follows:  <br><ul list-text><li>pentagon: spacebar</li><li>triangle: spacebar</li><li>circle: no response</li><li>rhombus: no response</li></ul></p><p class = block-text>Remember these rules before you proceed, as they will no longer be presented during the trial.</p><p class = block-text>Press <strong> enter</strong> to begin.</p></div>",13,33491,,,,,,,,,,,,,3847,13,3847,0,practice-no-stop-feedback,poldrack-single-stim,60,176776,0.0-6.0-0.0,go_nogo_deval,465,,"<div class = centerbox><p class = block-text>We will now start with a test session. In this test, concentrate on responding quickly and accurately to each stimuli unless it requires no response.</p><p class = block-text>Press enter to continue.</p></div>",13,3847,,,,,,,,,,,,,-1,-1,500,0,fixation,poldrack-single-stim,61,177278,0.0-6.0-1.0,go_nogo_deval,465,,<div class = centerbox><div class = fixation>+</div></div>,none,500,test,,,,,,,,,,,,465,32,850,0,stim,poldrack-single-stim,62,178130,0.0-6.0-2.0,go_nogo_deval,465,,<img class = center src='/static/experiments/go_nogo_deval/images/red_triangle.png'></img>,32,850,test,red_triangle,go2,32,0,0,,,,,,,-1,-1,1400,0,ITI,poldrack-single-stim,63,179532,0.0-6.0-3.0,go_nogo_deval,465,,<div></div>,32,1400,test,,,,,,,,,,,,-1,-1,500,0,fixation,poldrack-single-stim,64,180034,0.0-6.0-4.0,go_nogo_deval,465,,<div class = centerbox><div class = fixation>+</div></div>,none,500,test,,,,,,,,,,,,-1,-1,850,0,stim,poldrack-single-stim,65,180885,0.0-6.0-5.0,go_nogo_deval,465,,<img class = center src='/static/experiments/go_nogo_deval/images/purple_rhombus.png'></img>,32,850,test,purple_rhombus,nogo2,-1,1,0,,,,,,,-1,-1,1400,0,ITI,poldrack-single-stim,66,182286,0.0-6.0-6.0,go_nogo_deval,465,,<div></div>,32,1400,test,,,,,,,,,,,,-1,-1,500,0,fixation,poldrack-single-stim,67,182787,0.0-6.0-7.0,go_nogo_deval,465,,<div class = centerbox><div class = fixation>+</div></div>,none,500,test,,,,,,,,,,,,503,32,850,0,stim,poldrack-single-stim,68,183639,0.0-6.0-8.0,go_nogo_deval,465,,<img class = center src='/static/experiments/go_nogo_deval/images/green_pentagon.png'></img>,32,850,test,green_pentagon,go1,32,2,0,,,,,,,-1,-1,1400,0,ITI,poldrack-single-stim,69,185040,0.0-6.0-9.0,go_nogo_deval,465,,<div></div>,32,1400,test,,,,,,,,,,,,-1,-1,500,0,fixation,poldrack-single-stim,70,185541,0.0-6.0-10.0,go_nogo_deval,465,,<div class = centerbox><div class = fixation>+</div></div>,none,500,test,,,,,,,,,,,,-1,-1,850,0,stim,poldrack-single-stim,71,186393,0.0-6.0-11.0,go_nogo_deval,465,,<img class = center src='/static/experiments/go_nogo_deval/images/purple_rhombus.png'></img>,32,850,test,purple_rhombus,nogo2,-1,3,0,,,,,,,-1,-1,1400,0,ITI,poldrack-single-stim,72,187795,0.0-6.0-12.0,go_nogo_deval,465,,<div></div>,32,1400,test,,,,,,,,,,,,-1,-1,500,0,fixation,poldrack-single-stim,73,188295,0.0-6.0-13.0,go_nogo_deval,465,,<div class = centerbox><div class = fixation>+</div></div>,none,500,test,,,,,,,,,,,,540,32,850,0,stim,poldrack-single-stim,74,189146,0.0-6.0-14.0,go_nogo_deval,465,,<img class = center src='/static/experiments/go_nogo_deval/images/green_pentagon.png'></img>,32,850,test,green_pentagon,go1,32,4,0,,,,,,,-1,-1,1400,0,ITI,poldrack-single-stim,75,190547,0.0-6.0-15.0,go_nogo_deval,465,,<div></div>,32,1400,test,,,,,,,,,,,,-1,-1,500,0,fixation,poldrack-single-stim,76,191048,0.0-6.0-16.0,go_nogo_deval,465,,<div class = centerbox><div class = fixation>+</div></div>,none,500,test,,,,,,,,,,,,-1,-1,850,0,stim,poldrack-single-stim,77,191899,0.0-6.0-17.0,go_nogo_deval,465,,<img class = center src='/static/experiments/go_nogo_deval/images/purple_rhombus.png'></img>,32,850,test,purple_rhombus,nogo2,-1,5,0,,,,,,,-1,-1,1400,0,ITI,poldrack-single-stim,78,193301,0.0-6.0-18.0,go_nogo_deval,465,,<div></div>,32,1400,test,,,,,,,,,,,,-1,-1,500,0,fixation,poldrack-single-stim,79,193803,0.0-6.0-19.0,go_nogo_deval,465,,<div class = centerbox><div class = fixation>+</div></div>,none,500,test,,,,,,,,,,,,-1,-1,850,0,stim,poldrack-single-stim,80,194654,0.0-6.0-20.0,go_nogo_deval,465,,<img class = center src='/static/experiments/go_nogo_deval/images/purple_rhombus.png'></img>,32,850,test,purple_rhombus,nogo2,-1,6,0,,,,,,,-1,-1,1400,0,ITI,poldrack-single-stim,81,196056,0.0-6.0-21.0,go_nogo_deval,465,,<div></div>,32,1400,test,,,,,,,,,,,,-1,-1,500,0,fixation,poldrack-single-stim,82,196557,0.0-6.0-22.0,go_nogo_deval,465,,<div class = centerbox><div class = fixation>+</div></div>,none,500,test,,,,,,,,,,,,525,32,850,0,stim,poldrack-single-stim,83,197409,0.0-6.0-23.0,go_nogo_deval,465,,<img class = center src='/static/experiments/go_nogo_deval/images/green_pentagon.png'></img>,32,850,test,green_pentagon,go1,32,7,0,,,,,,,-1,-1,1400,0,ITI,poldrack-single-stim,84,198810,0.0-6.0-24.0,go_nogo_deval,465,,<div></div>,32,1400,test,,,,,,,,,,,,-1,-1,500,0,fixation,poldrack-single-stim,85,199312,0.0-6.0-25.0,go_nogo_deval,465,,<div class = centerbox><div class = fixation>+</div></div>,none,500,test,,,,,,,,,,,,368,32,850,0,stim,poldrack-single-stim,86,200164,0.0-6.0-26.0,go_nogo_deval,465,,<img class = center src='/static/experiments/go_nogo_deval/images/green_pentagon.png'></img>,32,850,test,green_pentagon,go1,32,8,0,,,,,,,-1,-1,1400,0,ITI,poldrack-single-stim,87,201565,0.0-6.0-27.0,go_nogo_deval,465,,<div></div>,32,1400,test,,,,,,,,,,,,-1,-1,500,0,fixation,poldrack-single-stim,88,202066,0.0-6.0-28.0,go_nogo_deval,465,,<div class = centerbox><div class = fixation>+</div></div>,none,500,test,,,,,,,,,,,,-1,-1,850,0,stim,poldrack-single-stim,89,202918,0.0-6.0-29.0,go_nogo_deval,465,,<img class = center src='/static/experiments/go_nogo_deval/images/purple_rhombus.png'></img>,32,850,test,purple_rhombus,nogo2,-1,9,0,,,,,,,-1,-1,1400,0,ITI,poldrack-single-stim,90,204319,0.0-6.0-30.0,go_nogo_deval,465,,<div></div>,32,1400,test,,,,,,,,,,,,-1,-1,500,0,fixation,poldrack-single-stim,91,204821,0.0-6.0-31.0,go_nogo_deval,465,,<div class = centerbox><div class = fixation>+</div></div>,none,500,test,,,,,,,,,,,,-1,-1,850,0,stim,poldrack-single-stim,92,205672,0.0-6.0-32.0,go_nogo_deval,465,,<img class = center src='/static/experiments/go_nogo_deval/images/blue_circle.png'></img>,32,850,test,blue_circle,nogo1,-1,10,0,,,,,,,-1,-1,1400,0,ITI,poldrack-single-stim,93,207073,0.0-6.0-33.0,go_nogo_deval,465,,<div></div>,32,1400,test,,,,,,,,,,,,-1,-1,500,0,fixation,poldrack-single-stim,94,207574,0.0-6.0-34.0,go_nogo_deval,465,,<div class = centerbox><div class = fixation>+</div></div>,none,500,test,,,,,,,,,,,,444,32,850,0,stim,poldrack-single-stim,95,208426,0.0-6.0-35.0,go_nogo_deval,465,,<img class = center src='/static/experiments/go_nogo_deval/images/green_pentagon.png'></img>,32,850,test,green_pentagon,go1,32,11,0,,,,,,,-1,-1,1400,0,ITI,poldrack-single-stim,96,209827,0.0-6.0-36.0,go_nogo_deval,465,,<div></div>,32,1400,test,,,,,,,,,,,,-1,-1,500,0,fixation,poldrack-single-stim,97,210328,0.0-6.0-37.0,go_nogo_deval,465,,<div class = centerbox><div class = fixation>+</div></div>,none,500,test,,,,,,,,,,,,-1,-1,850,0,stim,poldrack-single-stim,98,211179,0.0-6.0-38.0,go_nogo_deval,465,,<img class = center src='/static/experiments/go_nogo_deval/images/blue_circle.png'></img>,32,850,test,blue_circle,nogo1,-1,12,0,,,,,,,-1,-1,1400,0,ITI,poldrack-single-stim,99,212580,0.0-6.0-39.0,go_nogo_deval,465,,<div></div>,32,1400,test,,,,,,,,,,,,-1,-1,500,0,fixation,poldrack-single-stim,100,213082,0.0-6.0-40.0,go_nogo_deval,465,,<div class = centerbox><div class = fixation>+</div></div>,none,500,test,,,,,,,,,,,,392,32,850,0,stim,poldrack-single-stim,101,213934,0.0-6.0-41.0,go_nogo_deval,465,,<img class = center src='/static/experiments/go_nogo_deval/images/green_pentagon.png'></img>,32,850,test,green_pentagon,go1,32,13,0,,,,,,,-1,-1,1400,0,ITI,poldrack-single-stim,102,215336,0.0-6.0-42.0,go_nogo_deval,465,,<div></div>,32,1400,test,,,,,,,,,,,,-1,-1,500,0,fixation,poldrack-single-stim,103,215837,0.0-6.0-43.0,go_nogo_deval,465,,<div class = centerbox><div class = fixation>+</div></div>,none,500,test,,,,,,,,,,,,472,32,850,0,stim,poldrack-single-stim,104,216688,0.0-6.0-44.0,go_nogo_deval,465,,<img class = center src='/static/experiments/go_nogo_deval/images/red_triangle.png'></img>,32,850,test,red_triangle,go2,32,14,0,,,,,,,-1,-1,1400,0,ITI,poldrack-single-stim,105,218090,0.0-6.0-45.0,go_nogo_deval,465,,<div></div>,32,1400,test,,,,,,,,,,,,-1,-1,500,0,fixation,poldrack-single-stim,106,218590,0.0-6.0-46.0,go_nogo_deval,465,,<div class = centerbox><div class = fixation>+</div></div>,none,500,test,,,,,,,,,,,,-1,-1,850,0,stim,poldrack-single-stim,107,219442,0.0-6.0-47.0,go_nogo_deval,465,,<img class = center src='/static/experiments/go_nogo_deval/images/purple_rhombus.png'></img>,32,850,test,purple_rhombus,nogo2,-1,15,0,,,,,,,-1,-1,1400,0,ITI,poldrack-single-stim,108,220844,0.0-6.0-48.0,go_nogo_deval,465,,<div></div>,32,1400,test,,,,,,,,,,,,-1,-1,500,0,fixation,poldrack-single-stim,109,221346,0.0-6.0-49.0,go_nogo_deval,465,,<div class = centerbox><div class = fixation>+</div></div>,none,500,test,,,,,,,,,,,,373,32,850,0,stim,poldrack-single-stim,110,222197,0.0-6.0-50.0,go_nogo_deval,465,,<img class = center src='/static/experiments/go_nogo_deval/images/green_pentagon.png'></img>,32,850,test,green_pentagon,go1,32,16,0,,,,,,,-1,-1,1400,0,ITI,poldrack-single-stim,111,223599,0.0-6.0-51.0,go_nogo_deval,465,,<div></div>,32,1400,test,,,,,,,,,,,,-1,-1,500,0,fixation,poldrack-single-stim,112,224100,0.0-6.0-52.0,go_nogo_deval,465,,<div class = centerbox><div class = fixation>+</div></div>,none,500,test,,,,,,,,,,,,556,32,850,0,stim,poldrack-single-stim,113,224950,0.0-6.0-53.0,go_nogo_deval,465,,<img class = center src='/static/experiments/go_nogo_deval/images/green_pentagon.png'></img>,32,850,test,green_pentagon,go1,32,17,0,,,,,,,-1,-1,1400,0,ITI,poldrack-single-stim,114,226352,0.0-6.0-54.0,go_nogo_deval,465,,<div></div>,32,1400,test,,,,,,,,,,,,-1,-1,500,0,fixation,poldrack-single-stim,115,226853,0.0-6.0-55.0,go_nogo_deval,465,,<div class = centerbox><div class = fixation>+</div></div>,none,500,test,,,,,,,,,,,,503,32,850,0,stim,poldrack-single-stim,116,227705,0.0-6.0-56.0,go_nogo_deval,465,,<img class = center src='/static/experiments/go_nogo_deval/images/red_triangle.png'></img>,32,850,test,red_triangle,go2,32,18,0,,,,,,,-1,-1,1400,0,ITI,poldrack-single-stim,117,229107,0.0-6.0-57.0,go_nogo_deval,465,,<div></div>,32,1400,test,,,,,,,,,,,,-1,-1,500,0,fixation,poldrack-single-stim,118,229607,0.0-6.0-58.0,go_nogo_deval,465,,<div class = centerbox><div class = fixation>+</div></div>,none,500,test,,,,,,,,,,,,403,32,850,0,stim,poldrack-single-stim,119,230458,0.0-6.0-59.0,go_nogo_deval,465,,<img class = center src='/static/experiments/go_nogo_deval/images/green_pentagon.png'></img>,32,850,test,green_pentagon,go1,32,19,0,,,,,,,-1,-1,1400,0,ITI,poldrack-single-stim,120,231860,0.0-6.0-60.0,go_nogo_deval,465,,<div></div>,32,1400,test,,,,,,,,,,,,-1,-1,500,0,fixation,poldrack-single-stim,121,232362,0.0-6.0-61.0,go_nogo_deval,465,,<div class = centerbox><div class = fixation>+</div></div>,none,500,test,,,,,,,,,,,,451,32,850,0,stim,poldrack-single-stim,122,233213,0.0-6.0-62.0,go_nogo_deval,465,,<img class = center src='/static/experiments/go_nogo_deval/images/green_pentagon.png'></img>,32,850,test,green_pentagon,go1,32,20,0,,,,,,,-1,-1,1400,0,ITI,poldrack-single-stim,123,234614,0.0-6.0-63.0,go_nogo_deval,465,,<div></div>,32,1400,test,,,,,,,,,,,,-1,-1,500,0,fixation,poldrack-single-stim,124,235115,0.0-6.0-64.0,go_nogo_deval,465,,<div class = centerbox><div class = fixation>+</div></div>,none,500,test,,,,,,,,,,,,-1,-1,850,0,stim,poldrack-single-stim,125,235966,0.0-6.0-65.0,go_nogo_deval,465,,<img class = center src='/static/experiments/go_nogo_deval/images/purple_rhombus.png'></img>,32,850,test,purple_rhombus,nogo2,-1,21,0,,,,,,,-1,-1,1400,0,ITI,poldrack-single-stim,126,237368,0.0-6.0-66.0,go_nogo_deval,465,,<div></div>,32,1400,test,,,,,,,,,,,,-1,-1,500,0,fixation,poldrack-single-stim,127,237870,0.0-6.0-67.0,go_nogo_deval,465,,<div class = centerbox><div class = fixation>+</div></div>,none,500,test,,,,,,,,,,,,-1,-1,850,0,stim,poldrack-single-stim,128,238722,0.0-6.0-68.0,go_nogo_deval,465,,<img class = center src='/static/experiments/go_nogo_deval/images/blue_circle.png'></img>,32,850,test,blue_circle,nogo1,-1,22,0,,,,,,,-1,-1,1400,0,ITI,poldrack-single-stim,129,240122,0.0-6.0-69.0,go_nogo_deval,465,,<div></div>,32,1400,test,,,,,,,,,,,,-1,-1,500,0,fixation,poldrack-single-stim,130,240623,0.0-6.0-70.0,go_nogo_deval,465,,<div class = centerbox><div class = fixation>+</div></div>,none,500,test,,,,,,,,,,,,-1,-1,850,0,stim,poldrack-single-stim,131,241475,0.0-6.0-71.0,go_nogo_deval,465,,<img class = center src='/static/experiments/go_nogo_deval/images/blue_circle.png'></img>,32,850,test,blue_circle,nogo1,-1,23,0,,,,,,,-1,-1,1400,0,ITI,poldrack-single-stim,132,242877,0.0-6.0-72.0,go_nogo_deval,465,,<div></div>,32,1400,test,,,,,,,,,,,,-1,-1,500,0,fixation,poldrack-single-stim,133,243379,0.0-6.0-73.0,go_nogo_deval,465,,<div class = centerbox><div class = fixation>+</div></div>,none,500,test,,,,,,,,,,,,-1,-1,850,0,stim,poldrack-single-stim,134,244231,0.0-6.0-74.0,go_nogo_deval,465,,<img class = center src='/static/experiments/go_nogo_deval/images/purple_rhombus.png'></img>,32,850,test,purple_rhombus,nogo2,-1,24,0,,,,,,,-1,-1,1400,0,ITI,poldrack-single-stim,135,245633,0.0-6.0-75.0,go_nogo_deval,465,,<div></div>,32,1400,test,,,,,,,,,,,,-1,-1,500,0,fixation,poldrack-single-stim,136,246135,0.0-6.0-76.0,go_nogo_deval,465,,<div class = centerbox><div class = fixation>+</div></div>,none,500,test,,,,,,,,,,,,-1,-1,850,0,stim,poldrack-single-stim,137,246987,0.0-6.0-77.0,go_nogo_deval,465,,<img class = center src='/static/experiments/go_nogo_deval/images/blue_circle.png'></img>,32,850,test,blue_circle,nogo1,-1,25,0,,,,,,,-1,-1,1400,0,ITI,poldrack-single-stim,138,248389,0.0-6.0-78.0,go_nogo_deval,465,,<div></div>,32,1400,test,,,,,,,,,,,,-1,-1,500,0,fixation,poldrack-single-stim,139,248890,0.0-6.0-79.0,go_nogo_deval,465,,<div class = centerbox><div class = fixation>+</div></div>,none,500,test,,,,,,,,,,,,562,32,850,0,stim,poldrack-single-stim,140,249741,0.0-6.0-80.0,go_nogo_deval,465,,<img class = center src='/static/experiments/go_nogo_deval/images/red_triangle.png'></img>,32,850,test,red_triangle,go2,32,26,0,,,,,,,-1,-1,1400,0,ITI,poldrack-single-stim,141,251143,0.0-6.0-81.0,go_nogo_deval,465,,<div></div>,32,1400,test,,,,,,,,,,,,-1,-1,500,0,fixation,poldrack-single-stim,142,251645,0.0-6.0-82.0,go_nogo_deval,465,,<div class = centerbox><div class = fixation>+</div></div>,none,500,test,,,,,,,,,,,,574,32,850,0,stim,poldrack-single-stim,143,252497,0.0-6.0-83.0,go_nogo_deval,465,,<img class = center src='/static/experiments/go_nogo_deval/images/red_triangle.png'></img>,32,850,test,red_triangle,go2,32,27,0,,,,,,,-1,-1,1400,0,ITI,poldrack-single-stim,144,253899,0.0-6.0-84.0,go_nogo_deval,465,,<div></div>,32,1400,test,,,,,,,,,,,,-1,-1,500,0,fixation,poldrack-single-stim,145,254401,0.0-6.0-85.0,go_nogo_deval,465,,<div class = centerbox><div class = fixation>+</div></div>,none,500,test,,,,,,,,,,,,473,32,850,0,stim,poldrack-single-stim,146,255253,0.0-6.0-86.0,go_nogo_deval,465,,<img class = center src='/static/experiments/go_nogo_deval/images/red_triangle.png'></img>,32,850,test,red_triangle,go2,32,28,0,,,,,,,-1,-1,1400,0,ITI,poldrack-single-stim,147,256654,0.0-6.0-87.0,go_nogo_deval,465,,<div></div>,32,1400,test,,,,,,,,,,,,-1,-1,500,0,fixation,poldrack-single-stim,148,257155,0.0-6.0-88.0,go_nogo_deval,465,,<div class = centerbox><div class = fixation>+</div></div>,none,500,test,,,,,,,,,,,,599,32,850,0,stim,poldrack-single-stim,149,258007,0.0-6.0-89.0,go_nogo_deval,465,,<img class = center src='/static/experiments/go_nogo_deval/images/red_triangle.png'></img>,32,850,test,red_triangle,go2,32,29,0,,,,,,,-1,-1,1400,0,ITI,poldrack-single-stim,150,259409,0.0-6.0-90.0,go_nogo_deval,465,,<div></div>,32,1400,test,,,,,,,,,,,,-1,-1,500,0,fixation,poldrack-single-stim,151,259910,0.0-6.0-91.0,go_nogo_deval,465,,<div class = centerbox><div class = fixation>+</div></div>,none,500,test,,,,,,,,,,,,656,32,850,0,stim,poldrack-single-stim,152,260762,0.0-6.0-92.0,go_nogo_deval,465,,<img class = center src='/static/experiments/go_nogo_deval/images/green_pentagon.png'></img>,32,850,test,green_pentagon,go1,32,30,0,,,,,,,-1,-1,1400,0,ITI,poldrack-single-stim,153,262163,0.0-6.0-93.0,go_nogo_deval,465,,<div></div>,32,1400,test,,,,,,,,,,,,-1,-1,500,0,fixation,poldrack-single-stim,154,262665,0.0-6.0-94.0,go_nogo_deval,465,,<div class = centerbox><div class = fixation>+</div></div>,none,500,test,,,,,,,,,,,,533,32,850,0,stim,poldrack-single-stim,155,263517,0.0-6.0-95.0,go_nogo_deval,465,,<img class = center src='/static/experiments/go_nogo_deval/images/red_triangle.png'></img>,32,850,test,red_triangle,go2,32,31,0,,,,,,,-1,-1,1400,0,ITI,poldrack-single-stim,156,264919,0.0-6.0-96.0,go_nogo_deval,465,,<div></div>,32,1400,test,,,,,,,,,,,,-1,-1,500,0,fixation,poldrack-single-stim,157,265420,0.0-6.0-97.0,go_nogo_deval,465,,<div class = centerbox><div class = fixation>+</div></div>,none,500,test,,,,,,,,,,,,423,32,850,0,stim,poldrack-single-stim,158,266272,0.0-6.0-98.0,go_nogo_deval,465,,<img class = center src='/static/experiments/go_nogo_deval/images/red_triangle.png'></img>,32,850,test,red_triangle,go2,32,32,0,,,,,,,-1,-1,1400,0,ITI,poldrack-single-stim,159,267673,0.0-6.0-99.0,go_nogo_deval,465,,<div></div>,32,1400,test,,,,,,,,,,,,-1,-1,500,0,fixation,poldrack-single-stim,160,268175,0.0-6.0-100.0,go_nogo_deval,465,,<div class = centerbox><div class = fixation>+</div></div>,none,500,test,,,,,,,,,,,,569,32,850,0,stim,poldrack-single-stim,161,269027,0.0-6.0-101.0,go_nogo_deval,465,,<img class = center src='/static/experiments/go_nogo_deval/images/green_pentagon.png'></img>,32,850,test,green_pentagon,go1,32,33,0,,,,,,,-1,-1,1400,0,ITI,poldrack-single-stim,162,270429,0.0-6.0-102.0,go_nogo_deval,465,,<div></div>,32,1400,test,,,,,,,,,,,,-1,-1,500,0,fixation,poldrack-single-stim,163,270931,0.0-6.0-103.0,go_nogo_deval,465,,<div class = centerbox><div class = fixation>+</div></div>,none,500,test,,,,,,,,,,,,503,32,850,0,stim,poldrack-single-stim,164,271783,0.0-6.0-104.0,go_nogo_deval,465,,<img class = center src='/static/experiments/go_nogo_deval/images/red_triangle.png'></img>,32,850,test,red_triangle,go2,32,34,0,,,,,,,-1,-1,1400,0,ITI,poldrack-single-stim,165,273185,0.0-6.0-105.0,go_nogo_deval,465,,<div></div>,32,1400,test,,,,,,,,,,,,-1,-1,500,0,fixation,poldrack-single-stim,166,273685,0.0-6.0-106.0,go_nogo_deval,465,,<div class = centerbox><div class = fixation>+</div></div>,none,500,test,,,,,,,,,,,,414,32,850,0,stim,poldrack-single-stim,167,274537,0.0-6.0-107.0,go_nogo_deval,465,,<img class = center src='/static/experiments/go_nogo_deval/images/red_triangle.png'></img>,32,850,test,red_triangle,go2,32,35,0,,,,,,,-1,-1,1400,0,ITI,poldrack-single-stim,168,275939,0.0-6.0-108.0,go_nogo_deval,465,,<div></div>,32,1400,test,,,,,,,,,,,,-1,-1,500,0,fixation,poldrack-single-stim,169,276441,0.0-6.0-109.0,go_nogo_deval,465,,<div class = centerbox><div class = fixation>+</div></div>,none,500,test,,,,,,,,,,,,483,32,850,0,stim,poldrack-single-stim,170,277292,0.0-6.0-110.0,go_nogo_deval,465,,<img class = center src='/static/experiments/go_nogo_deval/images/green_pentagon.png'></img>,32,850,test,green_pentagon,go1,32,36,0,,,,,,,-1,-1,1400,0,ITI,poldrack-single-stim,171,278694,0.0-6.0-111.0,go_nogo_deval,465,,<div></div>,32,1400,test,,,,,,,,,,,,-1,-1,500,0,fixation,poldrack-single-stim,172,279196,0.0-6.0-112.0,go_nogo_deval,465,,<div class = centerbox><div class = fixation>+</div></div>,none,500,test,,,,,,,,,,,,-1,-1,850,0,stim,poldrack-single-stim,173,280047,0.0-6.0-113.0,go_nogo_deval,465,,<img class = center src='/static/experiments/go_nogo_deval/images/blue_circle.png'></img>,32,850,test,blue_circle,nogo1,-1,37,0,,,,,,,-1,-1,1400,0,ITI,poldrack-single-stim,174,281449,0.0-6.0-114.0,go_nogo_deval,465,,<div></div>,32,1400,test,,,,,,,,,,,,-1,-1,500,0,fixation,poldrack-single-stim,175,281950,0.0-6.0-115.0,go_nogo_deval,465,,<div class = centerbox><div class = fixation>+</div></div>,none,500,test,,,,,,,,,,,,-1,-1,850,0,stim,poldrack-single-stim,176,282802,0.0-6.0-116.0,go_nogo_deval,465,,<img class = center src='/static/experiments/go_nogo_deval/images/blue_circle.png'></img>,32,850,test,blue_circle,nogo1,-1,38,0,,,,,,,-1,-1,1400,0,ITI,poldrack-single-stim,177,284203,0.0-6.0-117.0,go_nogo_deval,465,,<div></div>,32,1400,test,,,,,,,,,,,,-1,-1,500,0,fixation,poldrack-single-stim,178,284705,0.0-6.0-118.0,go_nogo_deval,465,,<div class = centerbox><div class = fixation>+</div></div>,none,500,test,,,,,,,,,,,,410,32,850,0,stim,poldrack-single-stim,179,285556,0.0-6.0-119.0,go_nogo_deval,465,,<img class = center src='/static/experiments/go_nogo_deval/images/red_triangle.png'></img>,32,850,test,red_triangle,go2,32,39,0,,,,,,,-1,-1,1400,0,ITI,poldrack-single-stim,180,286958,0.0-6.0-120.0,go_nogo_deval,465,,<div></div>,32,1400,test,,,,,,,,,,,,-1,-1,500,0,fixation,poldrack-single-stim,181,287460,0.0-6.0-121.0,go_nogo_deval,465,,<div class = centerbox><div class = fixation>+</div></div>,none,500,test,,,,,,,,,,,,433,32,850,0,stim,poldrack-single-stim,182,288312,0.0-6.0-122.0,go_nogo_deval,465,,<img class = center src='/static/experiments/go_nogo_deval/images/red_triangle.png'></img>,32,850,test,red_triangle,go2,32,40,0,,,,,,,-1,-1,1400,0,ITI,poldrack-single-stim,183,289712,0.0-6.0-123.0,go_nogo_deval,465,,<div></div>,32,1400,test,,,,,,,,,,,,-1,-1,500,0,fixation,poldrack-single-stim,184,290214,0.0-6.0-124.0,go_nogo_deval,465,,<div class = centerbox><div class = fixation>+</div></div>,none,500,test,,,,,,,,,,,,423,32,850,0,stim,poldrack-single-stim,185,291066,0.0-6.0-125.0,go_nogo_deval,465,,<img class = center src='/static/experiments/go_nogo_deval/images/red_triangle.png'></img>,32,850,test,red_triangle,go2,32,41,0,,,,,,,-1,-1,1400,0,ITI,poldrack-single-stim,186,292468,0.0-6.0-126.0,go_nogo_deval,465,,<div></div>,32,1400,test,,,,,,,,,,,,-1,-1,500,0,fixation,poldrack-single-stim,187,292969,0.0-6.0-127.0,go_nogo_deval,465,,<div class = centerbox><div class = fixation>+</div></div>,none,500,test,,,,,,,,,,,,549,32,850,0,stim,poldrack-single-stim,188,293821,0.0-6.0-128.0,go_nogo_deval,465,,<img class = center src='/static/experiments/go_nogo_deval/images/green_pentagon.png'></img>,32,850,test,green_pentagon,go1,32,42,0,,,,,,,-1,-1,1400,0,ITI,poldrack-single-stim,189,295222,0.0-6.0-129.0,go_nogo_deval,465,,<div></div>,32,1400,test,,,,,,,,,,,,-1,-1,500,0,fixation,poldrack-single-stim,190,295724,0.0-6.0-130.0,go_nogo_deval,465,,<div class = centerbox><div class = fixation>+</div></div>,none,500,test,,,,,,,,,,,,-1,-1,850,0,stim,poldrack-single-stim,191,296575,0.0-6.0-131.0,go_nogo_deval,465,,<img class = center src='/static/experiments/go_nogo_deval/images/blue_circle.png'></img>,32,850,test,blue_circle,nogo1,-1,43,0,,,,,,,-1,-1,1400,0,ITI,poldrack-single-stim,192,297977,0.0-6.0-132.0,go_nogo_deval,465,,<div></div>,32,1400,test,,,,,,,,,,,,-1,-1,500,0,fixation,poldrack-single-stim,193,298479,0.0-6.0-133.0,go_nogo_deval,465,,<div class = centerbox><div class = fixation>+</div></div>,none,500,test,,,,,,,,,,,,428,32,850,0,stim,poldrack-single-stim,194,299330,0.0-6.0-134.0,go_nogo_deval,465,,<img class = center src='/static/experiments/go_nogo_deval/images/red_triangle.png'></img>,32,850,test,red_triangle,go2,32,44,0,,,,,,,-1,-1,1400,0,ITI,poldrack-single-stim,195,300732,0.0-6.0-135.0,go_nogo_deval,465,,<div></div>,32,1400,test,,,,,,,,,,,,-1,-1,500,0,fixation,poldrack-single-stim,196,301234,0.0-6.0-136.0,go_nogo_deval,465,,<div class = centerbox><div class = fixation>+</div></div>,none,500,test,,,,,,,,,,,,406,32,850,0,stim,poldrack-single-stim,197,302086,0.0-6.0-137.0,go_nogo_deval,465,,<img class = center src='/static/experiments/go_nogo_deval/images/red_triangle.png'></img>,32,850,test,red_triangle,go2,32,45,0,,,,,,,-1,-1,1400,0,ITI,poldrack-single-stim,198,303487,0.0-6.0-138.0,go_nogo_deval,465,,<div></div>,32,1400,test,,,,,,,,,,,,-1,-1,500,0,fixation,poldrack-single-stim,199,303989,0.0-6.0-139.0,go_nogo_deval,465,,<div class = centerbox><div class = fixation>+</div></div>,none,500,test,,,,,,,,,,,,464,32,850,0,stim,poldrack-single-stim,200,304839,0.0-6.0-140.0,go_nogo_deval,465,,<img class = center src='/static/experiments/go_nogo_deval/images/green_pentagon.png'></img>,32,850,test,green_pentagon,go1,32,46,0,,,,,,,-1,-1,1400,0,ITI,poldrack-single-stim,201,306241,0.0-6.0-141.0,go_nogo_deval,465,,<div></div>,32,1400,test,,,,,,,,,,,,-1,-1,500,0,fixation,poldrack-single-stim,202,306743,0.0-6.0-142.0,go_nogo_deval,465,,<div class = centerbox><div class = fixation>+</div></div>,none,500,test,,,,,,,,,,,,477,32,850,0,stim,poldrack-single-stim,203,307595,0.0-6.0-143.0,go_nogo_deval,465,,<img class = center src='/static/experiments/go_nogo_deval/images/green_pentagon.png'></img>,32,850,test,green_pentagon,go1,32,47,0,,,,,,,-1,-1,1400,0,ITI,poldrack-single-stim,204,308995,0.0-6.0-144.0,go_nogo_deval,465,,<div></div>,32,1400,test,,,,,,,,,,,,13792,13,13792,0,practice-no-stop-feedback,poldrack-single-stim,205,322791,0.0-6.1-0.1,go_nogo_deval,465,,<div class = centerbox><p class = block-text><br>Please take this time to read your feedback and to take a short break! Press enter to continue</p><p class = block-text><strong>Average reaction time:  480 ms. Accuracy: 100%</strong></p></div>,13,13792,,,,,,,,,,,,,-1,-1,500,0,fixation,poldrack-single-stim,206,323293,0.0-6.1-1.1,go_nogo_deval,465,,<div class = centerbox><div class = fixation>+</div></div>,none,500,test,,,,,,,,,,,,-1,-1,850,0,stim,poldrack-single-stim,207,324144,0.0-6.1-2.1,go_nogo_deval,465,,<img class = center src='/static/experiments/go_nogo_deval/images/purple_rhombus.png'></img>,32,850,test,purple_rhombus,nogo2,-1,0,1,,,,,,,-1,-1,1400,0,ITI,poldrack-single-stim,208,325546,0.0-6.1-3.1,go_nogo_deval,465,,<div></div>,32,1400,test,,,,,,,,,,,,-1,-1,500,0,fixation,poldrack-single-stim,209,326048,0.0-6.1-4.1,go_nogo_deval,465,,<div class = centerbox><div class = fixation>+</div></div>,none,500,test,,,,,,,,,,,,-1,-1,850,0,stim,poldrack-single-stim,210,326900,0.0-6.1-5.1,go_nogo_deval,465,,<img class = center src='/static/experiments/go_nogo_deval/images/purple_rhombus.png'></img>,32,850,test,purple_rhombus,nogo2,-1,1,1,,,,,,,-1,-1,1400,0,ITI,poldrack-single-stim,211,328302,0.0-6.1-6.1,go_nogo_deval,465,,<div></div>,32,1400,test,,,,,,,,,,,,-1,-1,500,0,fixation,poldrack-single-stim,212,328803,0.0-6.1-7.1,go_nogo_deval,465,,<div class = centerbox><div class = fixation>+</div></div>,none,500,test,,,,,,,,,,,,-1,-1,850,0,stim,poldrack-single-stim,213,329655,0.0-6.1-8.1,go_nogo_deval,465,,<img class = center src='/static/experiments/go_nogo_deval/images/purple_rhombus.png'></img>,32,850,test,purple_rhombus,nogo2,-1,2,1,,,,,,,-1,-1,1400,0,ITI,poldrack-single-stim,214,331056,0.0-6.1-9.1,go_nogo_deval,465,,<div></div>,32,1400,test,,,,,,,,,,,,-1,-1,500,0,fixation,poldrack-single-stim,215,331558,0.0-6.1-10.1,go_nogo_deval,465,,<div class = centerbox><div class = fixation>+</div></div>,none,500,test,,,,,,,,,,,,525,32,850,0,stim,poldrack-single-stim,216,332410,0.0-6.1-11.1,go_nogo_deval,465,,<img class = center src='/static/experiments/go_nogo_deval/images/red_triangle.png'></img>,32,850,test,red_triangle,go2,32,3,1,,,,,,,-1,-1,1400,0,ITI,poldrack-single-stim,217,333812,0.0-6.1-12.1,go_nogo_deval,465,,<div></div>,32,1400,test,,,,,,,,,,,,-1,-1,500,0,fixation,poldrack-single-stim,218,334314,0.0-6.1-13.1,go_nogo_deval,465,,<div class = centerbox><div class = fixation>+</div></div>,none,500,test,,,,,,,,,,,,436,32,850,0,stim,poldrack-single-stim,219,335165,0.0-6.1-14.1,go_nogo_deval,465,,<img class = center src='/static/experiments/go_nogo_deval/images/green_pentagon.png'></img>,32,850,test,green_pentagon,go1,32,4,1,,,,,,,-1,-1,1400,0,ITI,poldrack-single-stim,220,336567,0.0-6.1-15.1,go_nogo_deval,465,,<div></div>,32,1400,test,,,,,,,,,,,,-1,-1,500,0,fixation,poldrack-single-stim,221,337068,0.0-6.1-16.1,go_nogo_deval,465,,<div class = centerbox><div class = fixation>+</div></div>,none,500,test,,,,,,,,,,,,504,32,850,0,stim,poldrack-single-stim,222,337920,0.0-6.1-17.1,go_nogo_deval,465,,<img class = center src='/static/experiments/go_nogo_deval/images/red_triangle.png'></img>,32,850,test,red_triangle,go2,32,5,1,,,,,,,-1,-1,1400,0,ITI,poldrack-single-stim,223,339322,0.0-6.1-18.1,go_nogo_deval,465,,<div></div>,32,1400,test,,,,,,,,,,,,-1,-1,500,0,fixation,poldrack-single-stim,224,339824,0.0-6.1-19.1,go_nogo_deval,465,,<div class = centerbox><div class = fixation>+</div></div>,none,500,test,,,,,,,,,,,,494,32,850,0,stim,poldrack-single-stim,225,340676,0.0-6.1-20.1,go_nogo_deval,465,,<img class = center src='/static/experiments/go_nogo_deval/images/green_pentagon.png'></img>,32,850,test,green_pentagon,go1,32,6,1,,,,,,,-1,-1,1400,0,ITI,poldrack-single-stim,226,342077,0.0-6.1-21.1,go_nogo_deval,465,,<div></div>,32,1400,test,,,,,,,,,,,,-1,-1,500,0,fixation,poldrack-single-stim,227,342579,0.0-6.1-22.1,go_nogo_deval,465,,<div class = centerbox><div class = fixation>+</div></div>,none,500,test,,,,,,,,,,,,-1,-1,850,0,stim,poldrack-single-stim,228,343430,0.0-6.1-23.1,go_nogo_deval,465,,<img class = center src='/static/experiments/go_nogo_deval/images/purple_rhombus.png'></img>,32,850,test,purple_rhombus,nogo2,-1,7,1,,,,,,,-1,-1,1400,0,ITI,poldrack-single-stim,229,344832,0.0-6.1-24.1,go_nogo_deval,465,,<div></div>,32,1400,test,,,,,,,,,,,,-1,-1,500,0,fixation,poldrack-single-stim,230,345333,0.0-6.1-25.1,go_nogo_deval,465,,<div class = centerbox><div class = fixation>+</div></div>,none,500,test,,,,,,,,,,,,442,32,850,0,stim,poldrack-single-stim,231,346185,0.0-6.1-26.1,go_nogo_deval,465,,<img class = center src='/static/experiments/go_nogo_deval/images/green_pentagon.png'></img>,32,850,test,green_pentagon,go1,32,8,1,,,,,,,-1,-1,1400,0,ITI,poldrack-single-stim,232,347587,0.0-6.1-27.1,go_nogo_deval,465,,<div></div>,32,1400,test,,,,,,,,,,,,-1,-1,500,0,fixation,poldrack-single-stim,233,348088,0.0-6.1-28.1,go_nogo_deval,465,,<div class = centerbox><div class = fixation>+</div></div>,none,500,test,,,,,,,,,,,,611,32,850,0,stim,poldrack-single-stim,234,348940,0.0-6.1-29.1,go_nogo_deval,465,,<img class = center src='/static/experiments/go_nogo_deval/images/green_pentagon.png'></img>,32,850,test,green_pentagon,go1,32,9,1,,,,,,,-1,-1,1400,0,ITI,poldrack-single-stim,235,350342,0.0-6.1-30.1,go_nogo_deval,465,,<div></div>,32,1400,test,,,,,,,,,,,,-1,-1,500,0,fixation,poldrack-single-stim,236,350844,0.0-6.1-31.1,go_nogo_deval,465,,<div class = centerbox><div class = fixation>+</div></div>,none,500,test,,,,,,,,,,,,454,32,850,0,stim,poldrack-single-stim,237,351695,0.0-6.1-32.1,go_nogo_deval,465,,<img class = center src='/static/experiments/go_nogo_deval/images/green_pentagon.png'></img>,32,850,test,green_pentagon,go1,32,10,1,,,,,,,-1,-1,1400,0,ITI,poldrack-single-stim,238,353097,0.0-6.1-33.1,go_nogo_deval,465,,<div></div>,32,1400,test,,,,,,,,,,,,-1,-1,500,0,fixation,poldrack-single-stim,239,353598,0.0-6.1-34.1,go_nogo_deval,465,,<div class = centerbox><div class = fixation>+</div></div>,none,500,test,,,,,,,,,,,,568,32,850,0,stim,poldrack-single-stim,240,354450,0.0-6.1-35.1,go_nogo_deval,465,,<img class = center src='/static/experiments/go_nogo_deval/images/red_triangle.png'></img>,32,850,test,red_triangle,go2,32,11,1,,,,,,,-1,-1,1400,0,ITI,poldrack-single-stim,241,355851,0.0-6.1-36.1,go_nogo_deval,465,,<div></div>,32,1400,test,,,,,,,,,,,,-1,-1,500,0,fixation,poldrack-single-stim,242,356353,0.0-6.1-37.1,go_nogo_deval,465,,<div class = centerbox><div class = fixation>+</div></div>,none,500,test,,,,,,,,,,,,481,32,850,0,stim,poldrack-single-stim,243,357204,0.0-6.1-38.1,go_nogo_deval,465,,<img class = center src='/static/experiments/go_nogo_deval/images/green_pentagon.png'></img>,32,850,test,green_pentagon,go1,32,12,1,,,,,,,-1,-1,1400,0,ITI,poldrack-single-stim,244,358606,0.0-6.1-39.1,go_nogo_deval,465,,<div></div>,32,1400,test,,,,,,,,,,,,-1,-1,500,0,fixation,poldrack-single-stim,245,359107,0.0-6.1-40.1,go_nogo_deval,465,,<div class = centerbox><div class = fixation>+</div></div>,none,500,test,,,,,,,,,,,,-1,-1,850,0,stim,poldrack-single-stim,246,359959,0.0-6.1-41.1,go_nogo_deval,465,,<img class = center src='/static/experiments/go_nogo_deval/images/purple_rhombus.png'></img>,32,850,test,purple_rhombus,nogo2,-1,13,1,,,,,,,-1,-1,1400,0,ITI,poldrack-single-stim,247,361360,0.0-6.1-42.1,go_nogo_deval,465,,<div></div>,32,1400,test,,,,,,,,,,,,-1,-1,500,0,fixation,poldrack-single-stim,248,361862,0.0-6.1-43.1,go_nogo_deval,465,,<div class = centerbox><div class = fixation>+</div></div>,none,500,test,,,,,,,,,,,,-1,-1,850,0,stim,poldrack-single-stim,249,362714,0.0-6.1-44.1,go_nogo_deval,465,,<img class = center src='/static/experiments/go_nogo_deval/images/blue_circle.png'></img>,32,850,test,blue_circle,nogo1,-1,14,1,,,,,,,-1,-1,1400,0,ITI,poldrack-single-stim,250,364116,0.0-6.1-45.1,go_nogo_deval,465,,<div></div>,32,1400,test,,,,,,,,,,,,-1,-1,500,0,fixation,poldrack-single-stim,251,364616,0.0-6.1-46.1,go_nogo_deval,465,,<div class = centerbox><div class = fixation>+</div></div>,none,500,test,,,,,,,,,,,,496,32,850,0,stim,poldrack-single-stim,252,365468,0.0-6.1-47.1,go_nogo_deval,465,,<img class = center src='/static/experiments/go_nogo_deval/images/red_triangle.png'></img>,32,850,test,red_triangle,go2,32,15,1,,,,,,,-1,-1,1400,0,ITI,poldrack-single-stim,253,366869,0.0-6.1-48.1,go_nogo_deval,465,,<div></div>,32,1400,test,,,,,,,,,,,,-1,-1,500,0,fixation,poldrack-single-stim,254,367371,0.0-6.1-49.1,go_nogo_deval,465,,<div class = centerbox><div class = fixation>+</div></div>,none,500,test,,,,,,,,,,,,578,32,850,0,stim,poldrack-single-stim,255,368223,0.0-6.1-50.1,go_nogo_deval,465,,<img class = center src='/static/experiments/go_nogo_deval/images/red_triangle.png'></img>,32,850,test,red_triangle,go2,32,16,1,,,,,,,-1,-1,1400,0,ITI,poldrack-single-stim,256,369624,0.0-6.1-51.1,go_nogo_deval,465,,<div></div>,32,1400,test,,,,,,,,,,,,-1,-1,500,0,fixation,poldrack-single-stim,257,370126,0.0-6.1-52.1,go_nogo_deval,465,,<div class = centerbox><div class = fixation>+</div></div>,none,500,test,,,,,,,,,,,,477,32,850,0,stim,poldrack-single-stim,258,370978,0.0-6.1-53.1,go_nogo_deval,465,,<img class = center src='/static/experiments/go_nogo_deval/images/red_triangle.png'></img>,32,850,test,red_triangle,go2,32,17,1,,,,,,,-1,-1,1400,0,ITI,poldrack-single-stim,259,372380,0.0-6.1-54.1,go_nogo_deval,465,,<div></div>,32,1400,test,,,,,,,,,,,,-1,-1,500,0,fixation,poldrack-single-stim,260,372882,0.0-6.1-55.1,go_nogo_deval,465,,<div class = centerbox><div class = fixation>+</div></div>,none,500,test,,,,,,,,,,,,-1,-1,850,0,stim,poldrack-single-stim,261,373734,0.0-6.1-56.1,go_nogo_deval,465,,<img class = center src='/static/experiments/go_nogo_deval/images/purple_rhombus.png'></img>,32,850,test,purple_rhombus,nogo2,-1,18,1,,,,,,,-1,-1,1400,0,ITI,poldrack-single-stim,262,375135,0.0-6.1-57.1,go_nogo_deval,465,,<div></div>,32,1400,test,,,,,,,,,,,,-1,-1,500,0,fixation,poldrack-single-stim,263,375637,0.0-6.1-58.1,go_nogo_deval,465,,<div class = centerbox><div class = fixation>+</div></div>,none,500,test,,,,,,,,,,,,423,32,850,0,stim,poldrack-single-stim,264,376488,0.0-6.1-59.1,go_nogo_deval,465,,<img class = center src='/static/experiments/go_nogo_deval/images/red_triangle.png'></img>,32,850,test,red_triangle,go2,32,19,1,,,,,,,-1,-1,1400,0,ITI,poldrack-single-stim,265,377889,0.0-6.1-60.1,go_nogo_deval,465,,<div></div>,32,1400,test,,,,,,,,,,,,-1,-1,500,0,fixation,poldrack-single-stim,266,378390,0.0-6.1-61.1,go_nogo_deval,465,,<div class = centerbox><div class = fixation>+</div></div>,none,500,test,,,,,,,,,,,,483,32,850,0,stim,poldrack-single-stim,267,379242,0.0-6.1-62.1,go_nogo_deval,465,,<img class = center src='/static/experiments/go_nogo_deval/images/green_pentagon.png'></img>,32,850,test,green_pentagon,go1,32,20,1,,,,,,,-1,-1,1400,0,ITI,poldrack-single-stim,268,380643,0.0-6.1-63.1,go_nogo_deval,465,,<div></div>,32,1400,test,,,,,,,,,,,,-1,-1,500,0,fixation,poldrack-single-stim,269,381145,0.0-6.1-64.1,go_nogo_deval,465,,<div class = centerbox><div class = fixation>+</div></div>,none,500,test,,,,,,,,,,,,517,32,850,0,stim,poldrack-single-stim,270,381996,0.0-6.1-65.1,go_nogo_deval,465,,<img class = center src='/static/experiments/go_nogo_deval/images/green_pentagon.png'></img>,32,850,test,green_pentagon,go1,32,21,1,,,,,,,-1,-1,1400,0,ITI,poldrack-single-stim,271,383397,0.0-6.1-66.1,go_nogo_deval,465,,<div></div>,32,1400,test,,,,,,,,,,,,-1,-1,500,0,fixation,poldrack-single-stim,272,383899,0.0-6.1-67.1,go_nogo_deval,465,,<div class = centerbox><div class = fixation>+</div></div>,none,500,test,,,,,,,,,,,,462,32,850,0,stim,poldrack-single-stim,273,384751,0.0-6.1-68.1,go_nogo_deval,465,,<img class = center src='/static/experiments/go_nogo_deval/images/green_pentagon.png'></img>,32,850,test,green_pentagon,go1,32,22,1,,,,,,,-1,-1,1400,0,ITI,poldrack-single-stim,274,386152,0.0-6.1-69.1,go_nogo_deval,465,,<div></div>,32,1400,test,,,,,,,,,,,,-1,-1,500,0,fixation,poldrack-single-stim,275,386654,0.0-6.1-70.1,go_nogo_deval,465,,<div class = centerbox><div class = fixation>+</div></div>,none,500,test,,,,,,,,,,,,453,32,850,0,stim,poldrack-single-stim,276,387506,0.0-6.1-71.1,go_nogo_deval,465,,<img class = center src='/static/experiments/go_nogo_deval/images/red_triangle.png'></img>,32,850,test,red_triangle,go2,32,23,1,,,,,,,-1,-1,1400,0,ITI,poldrack-single-stim,277,388907,0.0-6.1-72.1,go_nogo_deval,465,,<div></div>,32,1400,test,,,,,,,,,,,,-1,-1,500,0,fixation,poldrack-single-stim,278,389408,0.0-6.1-73.1,go_nogo_deval,465,,<div class = centerbox><div class = fixation>+</div></div>,none,500,test,,,,,,,,,,,,444,32,850,0,stim,poldrack-single-stim,279,390260,0.0-6.1-74.1,go_nogo_deval,465,,<img class = center src='/static/experiments/go_nogo_deval/images/green_pentagon.png'></img>,32,850,test,green_pentagon,go1,32,24,1,,,,,,,-1,-1,1400,0,ITI,poldrack-single-stim,280,391662,0.0-6.1-75.1,go_nogo_deval,465,,<div></div>,32,1400,test,,,,,,,,,,,,-1,-1,500,0,fixation,poldrack-single-stim,281,392164,0.0-6.1-76.1,go_nogo_deval,465,,<div class = centerbox><div class = fixation>+</div></div>,none,500,test,,,,,,,,,,,,355,32,850,0,stim,poldrack-single-stim,282,393016,0.0-6.1-77.1,go_nogo_deval,465,,<img class = center src='/static/experiments/go_nogo_deval/images/green_pentagon.png'></img>,32,850,test,green_pentagon,go1,32,25,1,,,,,,,-1,-1,1400,0,ITI,poldrack-single-stim,283,394418,0.0-6.1-78.1,go_nogo_deval,465,,<div></div>,32,1400,test,,,,,,,,,,,,-1,-1,500,0,fixation,poldrack-single-stim,284,394919,0.0-6.1-79.1,go_nogo_deval,465,,<div class = centerbox><div class = fixation>+</div></div>,none,500,test,,,,,,,,,,,,478,32,850,0,stim,poldrack-single-stim,285,395770,0.0-6.1-80.1,go_nogo_deval,465,,<img class = center src='/static/experiments/go_nogo_deval/images/green_pentagon.png'></img>,32,850,test,green_pentagon,go1,32,26,1,,,,,,,-1,-1,1400,0,ITI,poldrack-single-stim,286,397172,0.0-6.1-81.1,go_nogo_deval,465,,<div></div>,32,1400,test,,,,,,,,,,,,-1,-1,500,0,fixation,poldrack-single-stim,287,397674,0.0-6.1-82.1,go_nogo_deval,465,,<div class = centerbox><div class = fixation>+</div></div>,none,500,test,,,,,,,,,,,,-1,-1,850,0,stim,poldrack-single-stim,288,398526,0.0-6.1-83.1,go_nogo_deval,465,,<img class = center src='/static/experiments/go_nogo_deval/images/purple_rhombus.png'></img>,32,850,test,purple_rhombus,nogo2,-1,27,1,,,,,,,-1,-1,1400,0,ITI,poldrack-single-stim,289,399926,0.0-6.1-84.1,go_nogo_deval,465,,<div></div>,32,1400,test,,,,,,,,,,,,-1,-1,500,0,fixation,poldrack-single-stim,290,400428,0.0-6.1-85.1,go_nogo_deval,465,,<div class = centerbox><div class = fixation>+</div></div>,none,500,test,,,,,,,,,,,,-1,-1,850,0,stim,poldrack-single-stim,291,401279,0.0-6.1-86.1,go_nogo_deval,465,,<img class = center src='/static/experiments/go_nogo_deval/images/purple_rhombus.png'></img>,32,850,test,purple_rhombus,nogo2,-1,28,1,,,,,,,-1,-1,1400,0,ITI,poldrack-single-stim,292,402681,0.0-6.1-87.1,go_nogo_deval,465,,<div></div>,32,1400,test,,,,,,,,,,,,-1,-1,500,0,fixation,poldrack-single-stim,293,403182,0.0-6.1-88.1,go_nogo_deval,465,,<div class = centerbox><div class = fixation>+</div></div>,none,500,test,,,,,,,,,,,,486,32,850,0,stim,poldrack-single-stim,294,404033,0.0-6.1-89.1,go_nogo_deval,465,,<img class = center src='/static/experiments/go_nogo_deval/images/green_pentagon.png'></img>,32,850,test,green_pentagon,go1,32,29,1,,,,,,,-1,-1,1400,0,ITI,poldrack-single-stim,295,405435,0.0-6.1-90.1,go_nogo_deval,465,,<div></div>,32,1400,test,,,,,,,,,,,,-1,-1,500,0,fixation,poldrack-single-stim,296,405937,0.0-6.1-91.1,go_nogo_deval,465,,<div class = centerbox><div class = fixation>+</div></div>,none,500,test,,,,,,,,,,,,-1,-1,850,0,stim,poldrack-single-stim,297,406789,0.0-6.1-92.1,go_nogo_deval,465,,<img class = center src='/static/experiments/go_nogo_deval/images/blue_circle.png'></img>,32,850,test,blue_circle,nogo1,-1,30,1,,,,,,,-1,-1,1400,0,ITI,poldrack-single-stim,298,408190,0.0-6.1-93.1,go_nogo_deval,465,,<div></div>,32,1400,test,,,,,,,,,,,,-1,-1,500,0,fixation,poldrack-single-stim,299,408692,0.0-6.1-94.1,go_nogo_deval,465,,<div class = centerbox><div class = fixation>+</div></div>,none,500,test,,,,,,,,,,,,443,32,850,0,stim,poldrack-single-stim,300,409543,0.0-6.1-95.1,go_nogo_deval,465,,<img class = center src='/static/experiments/go_nogo_deval/images/red_triangle.png'></img>,32,850,test,red_triangle,go2,32,31,1,,,,,,,-1,-1,1400,0,ITI,poldrack-single-stim,301,410944,0.0-6.1-96.1,go_nogo_deval,465,,<div></div>,32,1400,test,,,,,,,,,,,,-1,-1,500,0,fixation,poldrack-single-stim,302,411445,0.0-6.1-97.1,go_nogo_deval,465,,<div class = centerbox><div class = fixation>+</div></div>,none,500,test,,,,,,,,,,,,681,32,850,0,stim,poldrack-single-stim,303,412296,0.0-6.1-98.1,go_nogo_deval,465,,<img class = center src='/static/experiments/go_nogo_deval/images/green_pentagon.png'></img>,32,850,test,green_pentagon,go1,32,32,1,,,,,,,-1,-1,1400,0,ITI,poldrack-single-stim,304,413698,0.0-6.1-99.1,go_nogo_deval,465,,<div></div>,32,1400,test,,,,,,,,,,,,-1,-1,500,0,fixation,poldrack-single-stim,305,414200,0.0-6.1-100.1,go_nogo_deval,465,,<div class = centerbox><div class = fixation>+</div></div>,none,500,test,,,,,,,,,,,,-1,-1,850,0,stim,poldrack-single-stim,306,415052,0.0-6.1-101.1,go_nogo_deval,465,,<img class = center src='/static/experiments/go_nogo_deval/images/blue_circle.png'></img>,32,850,test,blue_circle,nogo1,-1,33,1,,,,,,,-1,-1,1400,0,ITI,poldrack-single-stim,307,416453,0.0-6.1-102.1,go_nogo_deval,465,,<div></div>,32,1400,test,,,,,,,,,,,,-1,-1,500,0,fixation,poldrack-single-stim,308,416954,0.0-6.1-103.1,go_nogo_deval,465,,<div class = centerbox><div class = fixation>+</div></div>,none,500,test,,,,,,,,,,,,382,32,850,0,stim,poldrack-single-stim,309,417806,0.0-6.1-104.1,go_nogo_deval,465,,<img class = center src='/static/experiments/go_nogo_deval/images/red_triangle.png'></img>,32,850,test,red_triangle,go2,32,34,1,,,,,,,-1,-1,1400,0,ITI,poldrack-single-stim,310,419208,0.0-6.1-105.1,go_nogo_deval,465,,<div></div>,32,1400,test,,,,,,,,,,,,-1,-1,500,0,fixation,poldrack-single-stim,311,419708,0.0-6.1-106.1,go_nogo_deval,465,,<div class = centerbox><div class = fixation>+</div></div>,none,500,test,,,,,,,,,,,,-1,-1,850,0,stim,poldrack-single-stim,312,420560,0.0-6.1-107.1,go_nogo_deval,465,,<img class = center src='/static/experiments/go_nogo_deval/images/blue_circle.png'></img>,32,850,test,blue_circle,nogo1,-1,35,1,,,,,,,-1,-1,1400,0,ITI,poldrack-single-stim,313,421961,0.0-6.1-108.1,go_nogo_deval,465,,<div></div>,32,1400,test,,,,,,,,,,,,-1,-1,500,0,fixation,poldrack-single-stim,314,422463,0.0-6.1-109.1,go_nogo_deval,465,,<div class = centerbox><div class = fixation>+</div></div>,none,500,test,,,,,,,,,,,,386,32,850,0,stim,poldrack-single-stim,315,423315,0.0-6.1-110.1,go_nogo_deval,465,,<img class = center src='/static/experiments/go_nogo_deval/images/red_triangle.png'></img>,32,850,test,red_triangle,go2,32,36,1,,,,,,,-1,-1,1400,0,ITI,poldrack-single-stim,316,424717,0.0-6.1-111.1,go_nogo_deval,465,,<div></div>,32,1400,test,,,,,,,,,,,,-1,-1,500,0,fixation,poldrack-single-stim,317,425218,0.0-6.1-112.1,go_nogo_deval,465,,<div class = centerbox><div class = fixation>+</div></div>,none,500,test,,,,,,,,,,,,522,32,850,0,stim,poldrack-single-stim,318,426070,0.0-6.1-113.1,go_nogo_deval,465,,<img class = center src='/static/experiments/go_nogo_deval/images/red_triangle.png'></img>,32,850,test,red_triangle,go2,32,37,1,,,,,,,-1,-1,1400,0,ITI,poldrack-single-stim,319,427471,0.0-6.1-114.1,go_nogo_deval,465,,<div></div>,32,1400,test,,,,,,,,,,,,-1,-1,500,0,fixation,poldrack-single-stim,320,427972,0.0-6.1-115.1,go_nogo_deval,465,,<div class = centerbox><div class = fixation>+</div></div>,none,500,test,,,,,,,,,,,,-1,-1,850,0,stim,poldrack-single-stim,321,428822,0.0-6.1-116.1,go_nogo_deval,465,,<img class = center src='/static/experiments/go_nogo_deval/images/blue_circle.png'></img>,32,850,test,blue_circle,nogo1,-1,38,1,,,,,,,-1,-1,1400,0,ITI,poldrack-single-stim,322,430224,0.0-6.1-117.1,go_nogo_deval,465,,<div></div>,32,1400,test,,,,,,,,,,,,-1,-1,500,0,fixation,poldrack-single-stim,323,430726,0.0-6.1-118.1,go_nogo_deval,465,,<div class = centerbox><div class = fixation>+</div></div>,none,500,test,,,,,,,,,,,,-1,-1,850,0,stim,poldrack-single-stim,324,431578,0.0-6.1-119.1,go_nogo_deval,465,,<img class = center src='/static/experiments/go_nogo_deval/images/blue_circle.png'></img>,32,850,test,blue_circle,nogo1,-1,39,1,,,,,,,-1,-1,1400,0,ITI,poldrack-single-stim,325,432980,0.0-6.1-120.1,go_nogo_deval,465,,<div></div>,32,1400,test,,,,,,,,,,,,-1,-1,500,0,fixation,poldrack-single-stim,326,433482,0.0-6.1-121.1,go_nogo_deval,465,,<div class = centerbox><div class = fixation>+</div></div>,none,500,test,,,,,,,,,,,,381,32,850,0,stim,poldrack-single-stim,327,434334,0.0-6.1-122.1,go_nogo_deval,465,,<img class = center src='/static/experiments/go_nogo_deval/images/red_triangle.png'></img>,32,850,test,red_triangle,go2,32,40,1,,,,,,,-1,-1,1400,0,ITI,poldrack-single-stim,328,435735,0.0-6.1-123.1,go_nogo_deval,465,,<div></div>,32,1400,test,,,,,,,,,,,,-1,-1,500,0,fixation,poldrack-single-stim,329,436237,0.0-6.1-124.1,go_nogo_deval,465,,<div class = centerbox><div class = fixation>+</div></div>,none,500,test,,,,,,,,,,,,528,32,850,0,stim,poldrack-single-stim,330,437088,0.0-6.1-125.1,go_nogo_deval,465,,<img class = center src='/static/experiments/go_nogo_deval/images/green_pentagon.png'></img>,32,850,test,green_pentagon,go1,32,41,1,,,,,,,-1,-1,1400,0,ITI,poldrack-single-stim,331,438490,0.0-6.1-126.1,go_nogo_deval,465,,<div></div>,32,1400,test,,,,,,,,,,,,-1,-1,500,0,fixation,poldrack-single-stim,332,438991,0.0-6.1-127.1,go_nogo_deval,465,,<div class = centerbox><div class = fixation>+</div></div>,none,500,test,,,,,,,,,,,,417,32,850,0,stim,poldrack-single-stim,333,439843,0.0-6.1-128.1,go_nogo_deval,465,,<img class = center src='/static/experiments/go_nogo_deval/images/red_triangle.png'></img>,32,850,test,red_triangle,go2,32,42,1,,,,,,,-1,-1,1400,0,ITI,poldrack-single-stim,334,441245,0.0-6.1-129.1,go_nogo_deval,465,,<div></div>,32,1400,test,,,,,,,,,,,,-1,-1,500,0,fixation,poldrack-single-stim,335,441747,0.0-6.1-130.1,go_nogo_deval,465,,<div class = centerbox><div class = fixation>+</div></div>,none,500,test,,,,,,,,,,,,-1,-1,850,0,stim,poldrack-single-stim,336,442599,0.0-6.1-131.1,go_nogo_deval,465,,<img class = center src='/static/experiments/go_nogo_deval/images/blue_circle.png'></img>,32,850,test,blue_circle,nogo1,-1,43,1,,,,,,,-1,-1,1400,0,ITI,poldrack-single-stim,337,444001,0.0-6.1-132.1,go_nogo_deval,465,,<div></div>,32,1400,test,,,,,,,,,,,,-1,-1,500,0,fixation,poldrack-single-stim,338,444502,0.0-6.1-133.1,go_nogo_deval,465,,<div class = centerbox><div class = fixation>+</div></div>,none,500,test,,,,,,,,,,,,-1,-1,850,0,stim,poldrack-single-stim,339,445354,0.0-6.1-134.1,go_nogo_deval,465,,<img class = center src='/static/experiments/go_nogo_deval/images/blue_circle.png'></img>,32,850,test,blue_circle,nogo1,-1,44,1,,,,,,,-1,-1,1400,0,ITI,poldrack-single-stim,340,446756,0.0-6.1-135.1,go_nogo_deval,465,,<div></div>,32,1400,test,,,,,,,,,,,,-1,-1,500,0,fixation,poldrack-single-stim,341,447258,0.0-6.1-136.1,go_nogo_deval,465,,<div class = centerbox><div class = fixation>+</div></div>,none,500,test,,,,,,,,,,,,465,32,850,0,stim,poldrack-single-stim,342,448109,0.0-6.1-137.1,go_nogo_deval,465,,<img class = center src='/static/experiments/go_nogo_deval/images/green_pentagon.png'></img>,32,850,test,green_pentagon,go1,32,45,1,,,,,,,-1,-1,1400,0,ITI,poldrack-single-stim,343,449510,0.0-6.1-138.1,go_nogo_deval,465,,<div></div>,32,1400,test,,,,,,,,,,,,-1,-1,500,0,fixation,poldrack-single-stim,344,450012,0.0-6.1-139.1,go_nogo_deval,465,,<div class = centerbox><div class = fixation>+</div></div>,none,500,test,,,,,,,,,,,,388,32,850,0,stim,poldrack-single-stim,345,450863,0.0-6.1-140.1,go_nogo_deval,465,,<img class = center src='/static/experiments/go_nogo_deval/images/red_triangle.png'></img>,32,850,test,red_triangle,go2,32,46,1,,,,,,,-1,-1,1400,0,ITI,poldrack-single-stim,346,452265,0.0-6.1-141.1,go_nogo_deval,465,,<div></div>,32,1400,test,,,,,,,,,,,,-1,-1,500,0,fixation,poldrack-single-stim,347,452766,0.0-6.1-142.1,go_nogo_deval,465,,<div class = centerbox><div class = fixation>+</div></div>,none,500,test,,,,,,,,,,,,389,32,850,0,stim,poldrack-single-stim,348,453618,0.0-6.1-143.1,go_nogo_deval,465,,<img class = center src='/static/experiments/go_nogo_deval/images/red_triangle.png'></img>,32,850,test,red_triangle,go2,32,47,1,,,,,,,-1,-1,1400,0,ITI,poldrack-single-stim,349,455019,0.0-6.1-144.1,go_nogo_deval,465,,<div></div>,32,1400,test,,,,,,,,,,,,14605,13,14605,0,practice-no-stop-feedback,poldrack-single-stim,350,469627,0.0-6.2-0.2,go_nogo_deval,465,,<div class = centerbox><p class = block-text><br>Please take this time to read your feedback and to take a short break! Press enter to continue</p><p class = block-text><strong>Average reaction time:  473 ms. Accuracy: 100%</strong></p></div>,13,14605,,,,,,,,,,,,,-1,-1,500,0,fixation,poldrack-single-stim,351,470129,0.0-6.2-1.2,go_nogo_deval,465,,<div class = centerbox><div class = fixation>+</div></div>,none,500,test,,,,,,,,,,,,656,32,850,0,stim,poldrack-single-stim,352,470980,0.0-6.2-2.2,go_nogo_deval,465,,<img class = center src='/static/experiments/go_nogo_deval/images/green_pentagon.png'></img>,32,850,test,green_pentagon,go1,32,0,2,,,,,,,-1,-1,1400,0,ITI,poldrack-single-stim,353,472383,0.0-6.2-3.2,go_nogo_deval,465,,<div></div>,32,1400,test,,,,,,,,,,,,-1,-1,500,0,fixation,poldrack-single-stim,354,472884,0.0-6.2-4.2,go_nogo_deval,465,,<div class = centerbox><div class = fixation>+</div></div>,none,500,test,,,,,,,,,,,,-1,-1,850,0,stim,poldrack-single-stim,355,473736,0.0-6.2-5.2,go_nogo_deval,465,,<img class = center src='/static/experiments/go_nogo_deval/images/blue_circle.png'></img>,32,850,test,blue_circle,nogo1,-1,1,2,,,,,,,-1,-1,1400,0,ITI,poldrack-single-stim,356,475138,0.0-6.2-6.2,go_nogo_deval,465,,<div></div>,32,1400,test,,,,,,,,,,,,-1,-1,500,0,fixation,poldrack-single-stim,357,475639,0.0-6.2-7.2,go_nogo_deval,465,,<div class = centerbox><div class = fixation>+</div></div>,none,500,test,,,,,,,,,,,,-1,-1,850,0,stim,poldrack-single-stim,358,476491,0.0-6.2-8.2,go_nogo_deval,465,,<img class = center src='/static/experiments/go_nogo_deval/images/blue_circle.png'></img>,32,850,test,blue_circle,nogo1,-1,2,2,,,,,,,-1,-1,1400,0,ITI,poldrack-single-stim,359,477892,0.0-6.2-9.2,go_nogo_deval,465,,<div></div>,32,1400,test,,,,,,,,,,,,-1,-1,500,0,fixation,poldrack-single-stim,360,478394,0.0-6.2-10.2,go_nogo_deval,465,,<div class = centerbox><div class = fixation>+</div></div>,none,500,test,,,,,,,,,,,,435,32,850,0,stim,poldrack-single-stim,361,479246,0.0-6.2-11.2,go_nogo_deval,465,,<img class = center src='/static/experiments/go_nogo_deval/images/green_pentagon.png'></img>,32,850,test,green_pentagon,go1,32,3,2,,,,,,,-1,-1,1400,0,ITI,poldrack-single-stim,362,480647,0.0-6.2-12.2,go_nogo_deval,465,,<div></div>,32,1400,test,,,,,,,,,,,,-1,-1,500,0,fixation,poldrack-single-stim,363,481149,0.0-6.2-13.2,go_nogo_deval,465,,<div class = centerbox><div class = fixation>+</div></div>,none,500,test,,,,,,,,,,,,459,32,850,0,stim,poldrack-single-stim,364,481999,0.0-6.2-14.2,go_nogo_deval,465,,<img class = center src='/static/experiments/go_nogo_deval/images/purple_rhombus.png'></img>,32,850,test,purple_rhombus,nogo2,-1,4,2,,,,,,,-1,-1,1400,0,ITI,poldrack-single-stim,365,483401,0.0-6.2-15.2,go_nogo_deval,465,,<div></div>,32,1400,test,,,,,,,,,,,,-1,-1,500,0,fixation,poldrack-single-stim,366,483903,0.0-6.2-16.2,go_nogo_deval,465,,<div class = centerbox><div class = fixation>+</div></div>,none,500,test,,,,,,,,,,,,-1,-1,850,0,stim,poldrack-single-stim,367,484755,0.0-6.2-17.2,go_nogo_deval,465,,<img class = center src='/static/experiments/go_nogo_deval/images/blue_circle.png'></img>,32,850,test,blue_circle,nogo1,-1,5,2,,,,,,,-1,-1,1400,0,ITI,poldrack-single-stim,368,486155,0.0-6.2-18.2,go_nogo_deval,465,,<div></div>,32,1400,test,,,,,,,,,,,,-1,-1,500,0,fixation,poldrack-single-stim,369,486657,0.0-6.2-19.2,go_nogo_deval,465,,<div class = centerbox><div class = fixation>+</div></div>,none,500,test,,,,,,,,,,,,473,32,850,0,stim,poldrack-single-stim,370,487509,0.0-6.2-20.2,go_nogo_deval,465,,<img class = center src='/static/experiments/go_nogo_deval/images/red_triangle.png'></img>,32,850,test,red_triangle,go2,32,6,2,,,,,,,-1,-1,1400,0,ITI,poldrack-single-stim,371,488911,0.0-6.2-21.2,go_nogo_deval,465,,<div></div>,32,1400,test,,,,,,,,,,,,-1,-1,500,0,fixation,poldrack-single-stim,372,489412,0.0-6.2-22.2,go_nogo_deval,465,,<div class = centerbox><div class = fixation>+</div></div>,none,500,test,,,,,,,,,,,,419,32,850,0,stim,poldrack-single-stim,373,490264,0.0-6.2-23.2,go_nogo_deval,465,,<img class = center src='/static/experiments/go_nogo_deval/images/green_pentagon.png'></img>,32,850,test,green_pentagon,go1,32,7,2,,,,,,,-1,-1,1400,0,ITI,poldrack-single-stim,374,491666,0.0-6.2-24.2,go_nogo_deval,465,,<div></div>,32,1400,test,,,,,,,,,,,,-1,-1,500,0,fixation,poldrack-single-stim,375,492167,0.0-6.2-25.2,go_nogo_deval,465,,<div class = centerbox><div class = fixation>+</div></div>,none,500,test,,,,,,,,,,,,-1,-1,850,0,stim,poldrack-single-stim,376,493019,0.0-6.2-26.2,go_nogo_deval,465,,<img class = center src='/static/experiments/go_nogo_deval/images/blue_circle.png'></img>,32,850,test,blue_circle,nogo1,-1,8,2,,,,,,,-1,-1,1400,0,ITI,poldrack-single-stim,377,494421,0.0-6.2-27.2,go_nogo_deval,465,,<div></div>,32,1400,test,,,,,,,,,,,,-1,-1,500,0,fixation,poldrack-single-stim,378,494923,0.0-6.2-28.2,go_nogo_deval,465,,<div class = centerbox><div class = fixation>+</div></div>,none,500,test,,,,,,,,,,,,455,32,850,0,stim,poldrack-single-stim,379,495774,0.0-6.2-29.2,go_nogo_deval,465,,<img class = center src='/static/experiments/go_nogo_deval/images/green_pentagon.png'></img>,32,850,test,green_pentagon,go1,32,9,2,,,,,,,-1,-1,1400,0,ITI,poldrack-single-stim,380,497176,0.0-6.2-30.2,go_nogo_deval,465,,<div></div>,32,1400,test,,,,,,,,,,,,-1,-1,500,0,fixation,poldrack-single-stim,381,497678,0.0-6.2-31.2,go_nogo_deval,465,,<div class = centerbox><div class = fixation>+</div></div>,none,500,test,,,,,,,,,,,,591,32,850,0,stim,poldrack-single-stim,382,498529,0.0-6.2-32.2,go_nogo_deval,465,,<img class = center src='/static/experiments/go_nogo_deval/images/green_pentagon.png'></img>,32,850,test,green_pentagon,go1,32,10,2,,,,,,,-1,-1,1400,0,ITI,poldrack-single-stim,383,499930,0.0-6.2-33.2,go_nogo_deval,465,,<div></div>,32,1400,test,,,,,,,,,,,,-1,-1,500,0,fixation,poldrack-single-stim,384,500432,0.0-6.2-34.2,go_nogo_deval,465,,<div class = centerbox><div class = fixation>+</div></div>,none,500,test,,,,,,,,,,,,526,32,850,0,stim,poldrack-single-stim,385,501283,0.0-6.2-35.2,go_nogo_deval,465,,<img class = center src='/static/experiments/go_nogo_deval/images/red_triangle.png'></img>,32,850,test,red_triangle,go2,32,11,2,,,,,,,-1,-1,1400,0,ITI,poldrack-single-stim,386,502684,0.0-6.2-36.2,go_nogo_deval,465,,<div></div>,32,1400,test,,,,,,,,,,,,-1,-1,500,0,fixation,poldrack-single-stim,387,503186,0.0-6.2-37.2,go_nogo_deval,465,,<div class = centerbox><div class = fixation>+</div></div>,none,500,test,,,,,,,,,,,,-1,-1,850,0,stim,poldrack-single-stim,388,504038,0.0-6.2-38.2,go_nogo_deval,465,,<img class = center src='/static/experiments/go_nogo_deval/images/blue_circle.png'></img>,32,850,test,blue_circle,nogo1,-1,12,2,,,,,,,-1,-1,1400,0,ITI,poldrack-single-stim,389,505439,0.0-6.2-39.2,go_nogo_deval,465,,<div></div>,32,1400,test,,,,,,,,,,,,-1,-1,500,0,fixation,poldrack-single-stim,390,505941,0.0-6.2-40.2,go_nogo_deval,465,,<div class = centerbox><div class = fixation>+</div></div>,none,500,test,,,,,,,,,,,,451,32,850,0,stim,poldrack-single-stim,391,506793,0.0-6.2-41.2,go_nogo_deval,465,,<img class = center src='/static/experiments/go_nogo_deval/images/green_pentagon.png'></img>,32,850,test,green_pentagon,go1,32,13,2,,,,,,,-1,-1,1400,0,ITI,poldrack-single-stim,392,508194,0.0-6.2-42.2,go_nogo_deval,465,,<div></div>,32,1400,test,,,,,,,,,,,,-1,-1,500,0,fixation,poldrack-single-stim,393,508696,0.0-6.2-43.2,go_nogo_deval,465,,<div class = centerbox><div class = fixation>+</div></div>,none,500,test,,,,,,,,,,,,-1,-1,850,0,stim,poldrack-single-stim,394,509548,0.0-6.2-44.2,go_nogo_deval,465,,<img class = center src='/static/experiments/go_nogo_deval/images/purple_rhombus.png'></img>,32,850,test,purple_rhombus,nogo2,-1,14,2,,,,,,,-1,-1,1400,0,ITI,poldrack-single-stim,395,510950,0.0-6.2-45.2,go_nogo_deval,465,,<div></div>,32,1400,test,,,,,,,,,,,,-1,-1,500,0,fixation,poldrack-single-stim,396,511452,0.0-6.2-46.2,go_nogo_deval,465,,<div class = centerbox><div class = fixation>+</div></div>,none,500,test,,,,,,,,,,,,418,32,850,0,stim,poldrack-single-stim,397,512304,0.0-6.2-47.2,go_nogo_deval,465,,<img class = center src='/static/experiments/go_nogo_deval/images/red_triangle.png'></img>,32,850,test,red_triangle,go2,32,15,2,,,,,,,-1,-1,1400,0,ITI,poldrack-single-stim,398,513706,0.0-6.2-48.2,go_nogo_deval,465,,<div></div>,32,1400,test,,,,,,,,,,,,-1,-1,500,0,fixation,poldrack-single-stim,399,514208,0.0-6.2-49.2,go_nogo_deval,465,,<div class = centerbox><div class = fixation>+</div></div>,none,500,test,,,,,,,,,,,,531,32,850,0,stim,poldrack-single-stim,400,515059,0.0-6.2-50.2,go_nogo_deval,465,,<img class = center src='/static/experiments/go_nogo_deval/images/red_triangle.png'></img>,32,850,test,red_triangle,go2,32,16,2,,,,,,,-1,-1,1400,0,ITI,poldrack-single-stim,401,516461,0.0-6.2-51.2,go_nogo_deval,465,,<div></div>,32,1400,test,,,,,,,,,,,,-1,-1,500,0,fixation,poldrack-single-stim,402,516962,0.0-6.2-52.2,go_nogo_deval,465,,<div class = centerbox><div class = fixation>+</div></div>,none,500,test,,,,,,,,,,,,455,32,850,0,stim,poldrack-single-stim,403,517814,0.0-6.2-53.2,go_nogo_deval,465,,<img class = center src='/static/experiments/go_nogo_deval/images/green_pentagon.png'></img>,32,850,test,green_pentagon,go1,32,17,2,,,,,,,-1,-1,1400,0,ITI,poldrack-single-stim,404,519216,0.0-6.2-54.2,go_nogo_deval,465,,<div></div>,32,1400,test,,,,,,,,,,,,-1,-1,500,0,fixation,poldrack-single-stim,405,519718,0.0-6.2-55.2,go_nogo_deval,465,,<div class = centerbox><div class = fixation>+</div></div>,none,500,test,,,,,,,,,,,,534,32,850,0,stim,poldrack-single-stim,406,520569,0.0-6.2-56.2,go_nogo_deval,465,,<img class = center src='/static/experiments/go_nogo_deval/images/red_triangle.png'></img>,32,850,test,red_triangle,go2,32,18,2,,,,,,,-1,-1,1400,0,ITI,poldrack-single-stim,407,521971,0.0-6.2-57.2,go_nogo_deval,465,,<div></div>,32,1400,test,,,,,,,,,,,,-1,-1,500,0,fixation,poldrack-single-stim,408,522472,0.0-6.2-58.2,go_nogo_deval,465,,<div class = centerbox><div class = fixation>+</div></div>,none,500,test,,,,,,,,,,,,546,32,850,0,stim,poldrack-single-stim,409,523323,0.0-6.2-59.2,go_nogo_deval,465,,<img class = center src='/static/experiments/go_nogo_deval/images/red_triangle.png'></img>,32,850,test,red_triangle,go2,32,19,2,,,,,,,-1,-1,1400,0,ITI,poldrack-single-stim,410,524725,0.0-6.2-60.2,go_nogo_deval,465,,<div></div>,32,1400,test,,,,,,,,,,,,-1,-1,500,0,fixation,poldrack-single-stim,411,525227,0.0-6.2-61.2,go_nogo_deval,465,,<div class = centerbox><div class = fixation>+</div></div>,none,500,test,,,,,,,,,,,,661,32,850,0,stim,poldrack-single-stim,412,526079,0.0-6.2-62.2,go_nogo_deval,465,,<img class = center src='/static/experiments/go_nogo_deval/images/red_triangle.png'></img>,32,850,test,red_triangle,go2,32,20,2,,,,,,,-1,-1,1400,0,ITI,poldrack-single-stim,413,527480,0.0-6.2-63.2,go_nogo_deval,465,,<div></div>,32,1400,test,,,,,,,,,,,,-1,-1,500,0,fixation,poldrack-single-stim,414,527982,0.0-6.2-64.2,go_nogo_deval,465,,<div class = centerbox><div class = fixation>+</div></div>,none,500,test,,,,,,,,,,,,527,32,850,0,stim,poldrack-single-stim,415,528834,0.0-6.2-65.2,go_nogo_deval,465,,<img class = center src='/static/experiments/go_nogo_deval/images/red_triangle.png'></img>,32,850,test,red_triangle,go2,32,21,2,,,,,,,-1,-1,1400,0,ITI,poldrack-single-stim,416,530236,0.0-6.2-66.2,go_nogo_deval,465,,<div></div>,32,1400,test,,,,,,,,,,,,-1,-1,500,0,fixation,poldrack-single-stim,417,530738,0.0-6.2-67.2,go_nogo_deval,465,,<div class = centerbox><div class = fixation>+</div></div>,none,500,test,,,,,,,,,,,,618,32,850,0,stim,poldrack-single-stim,418,531589,0.0-6.2-68.2,go_nogo_deval,465,,<img class = center src='/static/experiments/go_nogo_deval/images/green_pentagon.png'></img>,32,850,test,green_pentagon,go1,32,22,2,,,,,,,-1,-1,1400,0,ITI,poldrack-single-stim,419,532991,0.0-6.2-69.2,go_nogo_deval,465,,<div></div>,32,1400,test,,,,,,,,,,,,-1,-1,500,0,fixation,poldrack-single-stim,420,533492,0.0-6.2-70.2,go_nogo_deval,465,,<div class = centerbox><div class = fixation>+</div></div>,none,500,test,,,,,,,,,,,,-1,-1,850,0,stim,poldrack-single-stim,421,534344,0.0-6.2-71.2,go_nogo_deval,465,,<img class = center src='/static/experiments/go_nogo_deval/images/blue_circle.png'></img>,32,850,test,blue_circle,nogo1,-1,23,2,,,,,,,-1,-1,1400,0,ITI,poldrack-single-stim,422,535745,0.0-6.2-72.2,go_nogo_deval,465,,<div></div>,32,1400,test,,,,,,,,,,,,-1,-1,500,0,fixation,poldrack-single-stim,423,536247,0.0-6.2-73.2,go_nogo_deval,465,,<div class = centerbox><div class = fixation>+</div></div>,none,500,test,,,,,,,,,,,,520,32,850,0,stim,poldrack-single-stim,424,537098,0.0-6.2-74.2,go_nogo_deval,465,,<img class = center src='/static/experiments/go_nogo_deval/images/green_pentagon.png'></img>,32,850,test,green_pentagon,go1,32,24,2,,,,,,,-1,-1,1400,0,ITI,poldrack-single-stim,425,538500,0.0-6.2-75.2,go_nogo_deval,465,,<div></div>,32,1400,test,,,,,,,,,,,,-1,-1,500,0,fixation,poldrack-single-stim,426,539001,0.0-6.2-76.2,go_nogo_deval,465,,<div class = centerbox><div class = fixation>+</div></div>,none,500,test,,,,,,,,,,,,645,32,850,0,stim,poldrack-single-stim,427,539853,0.0-6.2-77.2,go_nogo_deval,465,,<img class = center src='/static/experiments/go_nogo_deval/images/red_triangle.png'></img>,32,850,test,red_triangle,go2,32,25,2,,,,,,,-1,-1,1400,0,ITI,poldrack-single-stim,428,541254,0.0-6.2-78.2,go_nogo_deval,465,,<div></div>,32,1400,test,,,,,,,,,,,,-1,-1,500,0,fixation,poldrack-single-stim,429,541756,0.0-6.2-79.2,go_nogo_deval,465,,<div class = centerbox><div class = fixation>+</div></div>,none,500,test,,,,,,,,,,,,523,32,850,0,stim,poldrack-single-stim,430,542606,0.0-6.2-80.2,go_nogo_deval,465,,<img class = center src='/static/experiments/go_nogo_deval/images/green_pentagon.png'></img>,32,850,test,green_pentagon,go1,32,26,2,,,,,,,-1,-1,1400,0,ITI,poldrack-single-stim,431,544008,0.0-6.2-81.2,go_nogo_deval,465,,<div></div>,32,1400,test,,,,,,,,,,,,-1,-1,500,0,fixation,poldrack-single-stim,432,544510,0.0-6.2-82.2,go_nogo_deval,465,,<div class = centerbox><div class = fixation>+</div></div>,none,500,test,,,,,,,,,,,,413,32,850,0,stim,poldrack-single-stim,433,545362,0.0-6.2-83.2,go_nogo_deval,465,,<img class = center src='/static/experiments/go_nogo_deval/images/green_pentagon.png'></img>,32,850,test,green_pentagon,go1,32,27,2,,,,,,,-1,-1,1400,0,ITI,poldrack-single-stim,434,546763,0.0-6.2-84.2,go_nogo_deval,465,,<div></div>,32,1400,test,,,,,,,,,,,,-1,-1,500,0,fixation,poldrack-single-stim,435,547264,0.0-6.2-85.2,go_nogo_deval,465,,<div class = centerbox><div class = fixation>+</div></div>,none,500,test,,,,,,,,,,,,572,32,850,0,stim,poldrack-single-stim,436,548116,0.0-6.2-86.2,go_nogo_deval,465,,<img class = center src='/static/experiments/go_nogo_deval/images/red_triangle.png'></img>,32,850,test,red_triangle,go2,32,28,2,,,,,,,-1,-1,1400,0,ITI,poldrack-single-stim,437,549518,0.0-6.2-87.2,go_nogo_deval,465,,<div></div>,32,1400,test,,,,,,,,,,,,-1,-1,500,0,fixation,poldrack-single-stim,438,550019,0.0-6.2-88.2,go_nogo_deval,465,,<div class = centerbox><div class = fixation>+</div></div>,none,500,test,,,,,,,,,,,,395,32,850,0,stim,poldrack-single-stim,439,550870,0.0-6.2-89.2,go_nogo_deval,465,,<img class = center src='/static/experiments/go_nogo_deval/images/red_triangle.png'></img>,32,850,test,red_triangle,go2,32,29,2,,,,,,,-1,-1,1400,0,ITI,poldrack-single-stim,440,552271,0.0-6.2-90.2,go_nogo_deval,465,,<div></div>,32,1400,test,,,,,,,,,,,,-1,-1,500,0,fixation,poldrack-single-stim,441,552773,0.0-6.2-91.2,go_nogo_deval,465,,<div class = centerbox><div class = fixation>+</div></div>,none,500,test,,,,,,,,,,,,-1,-1,850,0,stim,poldrack-single-stim,442,553626,0.0-6.2-92.2,go_nogo_deval,465,,<img class = center src='/static/experiments/go_nogo_deval/images/purple_rhombus.png'></img>,32,850,test,purple_rhombus,nogo2,-1,30,2,,,,,,,-1,-1,1400,0,ITI,poldrack-single-stim,443,555027,0.0-6.2-93.2,go_nogo_deval,465,,<div></div>,32,1400,test,,,,,,,,,,,,-1,-1,500,0,fixation,poldrack-single-stim,444,555529,0.0-6.2-94.2,go_nogo_deval,465,,<div class = centerbox><div class = fixation>+</div></div>,none,500,test,,,,,,,,,,,,531,32,850,0,stim,poldrack-single-stim,445,556381,0.0-6.2-95.2,go_nogo_deval,465,,<img class = center src='/static/experiments/go_nogo_deval/images/green_pentagon.png'></img>,32,850,test,green_pentagon,go1,32,31,2,,,,,,,-1,-1,1400,0,ITI,poldrack-single-stim,446,557782,0.0-6.2-96.2,go_nogo_deval,465,,<div></div>,32,1400,test,,,,,,,,,,,,-1,-1,500,0,fixation,poldrack-single-stim,447,558283,0.0-6.2-97.2,go_nogo_deval,465,,<div class = centerbox><div class = fixation>+</div></div>,none,500,test,,,,,,,,,,,,-1,-1,850,0,stim,poldrack-single-stim,448,559135,0.0-6.2-98.2,go_nogo_deval,465,,<img class = center src='/static/experiments/go_nogo_deval/images/purple_rhombus.png'></img>,32,850,test,purple_rhombus,nogo2,-1,32,2,,,,,,,-1,-1,1400,0,ITI,poldrack-single-stim,449,560537,0.0-6.2-99.2,go_nogo_deval,465,,<div></div>,32,1400,test,,,,,,,,,,,,-1,-1,500,0,fixation,poldrack-single-stim,450,561039,0.0-6.2-100.2,go_nogo_deval,465,,<div class = centerbox><div class = fixation>+</div></div>,none,500,test,,,,,,,,,,,,467,32,850,0,stim,poldrack-single-stim,451,561890,0.0-6.2-101.2,go_nogo_deval,465,,<img class = center src='/static/experiments/go_nogo_deval/images/red_triangle.png'></img>,32,850,test,red_triangle,go2,32,33,2,,,,,,,-1,-1,1400,0,ITI,poldrack-single-stim,452,563291,0.0-6.2-102.2,go_nogo_deval,465,,<div></div>,32,1400,test,,,,,,,,,,,,-1,-1,500,0,fixation,poldrack-single-stim,453,563793,0.0-6.2-103.2,go_nogo_deval,465,,<div class = centerbox><div class = fixation>+</div></div>,none,500,test,,,,,,,,,,,,-1,-1,850,0,stim,poldrack-single-stim,454,564645,0.0-6.2-104.2,go_nogo_deval,465,,<img class = center src='/static/experiments/go_nogo_deval/images/purple_rhombus.png'></img>,32,850,test,purple_rhombus,nogo2,-1,34,2,,,,,,,-1,-1,1400,0,ITI,poldrack-single-stim,455,566046,0.0-6.2-105.2,go_nogo_deval,465,,<div></div>,32,1400,test,,,,,,,,,,,,-1,-1,500,0,fixation,poldrack-single-stim,456,566548,0.0-6.2-106.2,go_nogo_deval,465,,<div class = centerbox><div class = fixation>+</div></div>,none,500,test,,,,,,,,,,,,493,32,850,0,stim,poldrack-single-stim,457,567399,0.0-6.2-107.2,go_nogo_deval,465,,<img class = center src='/static/experiments/go_nogo_deval/images/red_triangle.png'></img>,32,850,test,red_triangle,go2,32,35,2,,,,,,,-1,-1,1400,0,ITI,poldrack-single-stim,458,568801,0.0-6.2-108.2,go_nogo_deval,465,,<div></div>,32,1400,test,,,,,,,,,,,,-1,-1,500,0,fixation,poldrack-single-stim,459,569302,0.0-6.2-109.2,go_nogo_deval,465,,<div class = centerbox><div class = fixation>+</div></div>,none,500,test,,,,,,,,,,,,551,32,850,0,stim,poldrack-single-stim,460,570154,0.0-6.2-110.2,go_nogo_deval,465,,<img class = center src='/static/experiments/go_nogo_deval/images/green_pentagon.png'></img>,32,850,test,green_pentagon,go1,32,36,2,,,,,,,-1,-1,1400,0,ITI,poldrack-single-stim,461,571556,0.0-6.2-111.2,go_nogo_deval,465,,<div></div>,32,1400,test,,,,,,,,,,,,-1,-1,500,0,fixation,poldrack-single-stim,462,572058,0.0-6.2-112.2,go_nogo_deval,465,,<div class = centerbox><div class = fixation>+</div></div>,none,500,test,,,,,,,,,,,,462,32,850,0,stim,poldrack-single-stim,463,572910,0.0-6.2-113.2,go_nogo_deval,465,,<img class = center src='/static/experiments/go_nogo_deval/images/green_pentagon.png'></img>,32,850,test,green_pentagon,go1,32,37,2,,,,,,,-1,-1,1400,0,ITI,poldrack-single-stim,464,574311,0.0-6.2-114.2,go_nogo_deval,465,,<div></div>,32,1400,test,,,,,,,,,,,,-1,-1,500,0,fixation,poldrack-single-stim,465,574813,0.0-6.2-115.2,go_nogo_deval,465,,<div class = centerbox><div class = fixation>+</div></div>,none,500,test,,,,,,,,,,,,497,32,850,0,stim,poldrack-single-stim,466,575664,0.0-6.2-116.2,go_nogo_deval,465,,<img class = center src='/static/experiments/go_nogo_deval/images/red_triangle.png'></img>,32,850,test,red_triangle,go2,32,38,2,,,,,,,-1,-1,1400,0,ITI,poldrack-single-stim,467,577065,0.0-6.2-117.2,go_nogo_deval,465,,<div></div>,32,1400,test,,,,,,,,,,,,-1,-1,500,0,fixation,poldrack-single-stim,468,577566,0.0-6.2-118.2,go_nogo_deval,465,,<div class = centerbox><div class = fixation>+</div></div>,none,500,test,,,,,,,,,,,,443,32,850,0,stim,poldrack-single-stim,469,578418,0.0-6.2-119.2,go_nogo_deval,465,,<img class = center src='/static/experiments/go_nogo_deval/images/purple_rhombus.png'></img>,32,850,test,purple_rhombus,nogo2,-1,39,2,,,,,,,-1,-1,1400,0,ITI,poldrack-single-stim,470,579820,0.0-6.2-120.2,go_nogo_deval,465,,<div></div>,32,1400,test,,,,,,,,,,,,-1,-1,500,0,fixation,poldrack-single-stim,471,580322,0.0-6.2-121.2,go_nogo_deval,465,,<div class = centerbox><div class = fixation>+</div></div>,none,500,test,,,,,,,,,,,,-1,-1,850,0,stim,poldrack-single-stim,472,581173,0.0-6.2-122.2,go_nogo_deval,465,,<img class = center src='/static/experiments/go_nogo_deval/images/blue_circle.png'></img>,32,850,test,blue_circle,nogo1,-1,40,2,,,,,,,-1,-1,1400,0,ITI,poldrack-single-stim,473,582575,0.0-6.2-123.2,go_nogo_deval,465,,<div></div>,32,1400,test,,,,,,,,,,,,-1,-1,500,0,fixation,poldrack-single-stim,474,583076,0.0-6.2-124.2,go_nogo_deval,465,,<div class = centerbox><div class = fixation>+</div></div>,none,500,test,,,,,,,,,,,,458,32,850,0,stim,poldrack-single-stim,475,583928,0.0-6.2-125.2,go_nogo_deval,465,,<img class = center src='/static/experiments/go_nogo_deval/images/green_pentagon.png'></img>,32,850,test,green_pentagon,go1,32,41,2,,,,,,,-1,-1,1400,0,ITI,poldrack-single-stim,476,585329,0.0-6.2-126.2,go_nogo_deval,465,,<div></div>,32,1400,test,,,,,,,,,,,,-1,-1,500,0,fixation,poldrack-single-stim,477,585831,0.0-6.2-127.2,go_nogo_deval,465,,<div class = centerbox><div class = fixation>+</div></div>,none,500,test,,,,,,,,,,,,-1,-1,850,0,stim,poldrack-single-stim,478,586683,0.0-6.2-128.2,go_nogo_deval,465,,<img class = center src='/static/experiments/go_nogo_deval/images/purple_rhombus.png'></img>,32,850,test,purple_rhombus,nogo2,-1,42,2,,,,,,,-1,-1,1400,0,ITI,poldrack-single-stim,479,588085,0.0-6.2-129.2,go_nogo_deval,465,,<div></div>,32,1400,test,,,,,,,,,,,,-1,-1,500,0,fixation,poldrack-single-stim,480,588586,0.0-6.2-130.2,go_nogo_deval,465,,<div class = centerbox><div class = fixation>+</div></div>,none,500,test,,,,,,,,,,,,471,32,850,0,stim,poldrack-single-stim,481,589438,0.0-6.2-131.2,go_nogo_deval,465,,<img class = center src='/static/experiments/go_nogo_deval/images/red_triangle.png'></img>,32,850,test,red_triangle,go2,32,43,2,,,,,,,-1,-1,1400,0,ITI,poldrack-single-stim,482,590839,0.0-6.2-132.2,go_nogo_deval,465,,<div></div>,32,1400,test,,,,,,,,,,,,-1,-1,500,0,fixation,poldrack-single-stim,483,591341,0.0-6.2-133.2,go_nogo_deval,465,,<div class = centerbox><div class = fixation>+</div></div>,none,500,test,,,,,,,,,,,,-1,-1,850,0,stim,poldrack-single-stim,484,592193,0.0-6.2-134.2,go_nogo_deval,465,,<img class = center src='/static/experiments/go_nogo_deval/images/blue_circle.png'></img>,32,850,test,blue_circle,nogo1,-1,44,2,,,,,,,-1,-1,1400,0,ITI,poldrack-single-stim,485,593594,0.0-6.2-135.2,go_nogo_deval,465,,<div></div>,32,1400,test,,,,,,,,,,,,-1,-1,500,0,fixation,poldrack-single-stim,486,594096,0.0-6.2-136.2,go_nogo_deval,465,,<div class = centerbox><div class = fixation>+</div></div>,none,500,test,,,,,,,,,,,,518,32,850,0,stim,poldrack-single-stim,487,594947,0.0-6.2-137.2,go_nogo_deval,465,,<img class = center src='/static/experiments/go_nogo_deval/images/green_pentagon.png'></img>,32,850,test,green_pentagon,go1,32,45,2,,,,,,,-1,-1,1400,0,ITI,poldrack-single-stim,488,596349,0.0-6.2-138.2,go_nogo_deval,465,,<div></div>,32,1400,test,,,,,,,,,,,,-1,-1,500,0,fixation,poldrack-single-stim,489,596851,0.0-6.2-139.2,go_nogo_deval,465,,<div class = centerbox><div class = fixation>+</div></div>,none,500,test,,,,,,,,,,,,-1,-1,850,0,stim,poldrack-single-stim,490,597703,0.0-6.2-140.2,go_nogo_deval,465,,<img class = center src='/static/experiments/go_nogo_deval/images/purple_rhombus.png'></img>,32,850,test,purple_rhombus,nogo2,-1,46,2,,,,,,,-1,-1,1400,0,ITI,poldrack-single-stim,491,599104,0.0-6.2-141.2,go_nogo_deval,465,,<div></div>,32,1400,test,,,,,,,,,,,,-1,-1,500,0,fixation,poldrack-single-stim,492,599605,0.0-6.2-142.2,go_nogo_deval,465,,<div class = centerbox><div class = fixation>+</div></div>,none,500,test,,,,,,,,,,,,409,32,850,0,stim,poldrack-single-stim,493,600457,0.0-6.2-143.2,go_nogo_deval,465,,<img class = center src='/static/experiments/go_nogo_deval/images/red_triangle.png'></img>,32,850,test,red_triangle,go2,32,47,2,,,,,,,-1,-1,1400,0,ITI,poldrack-single-stim,494,601859,0.0-6.2-144.2,go_nogo_deval,465,,<div></div>,32,1400,test,,,,,,,,,,,,18885,13,18885,0,practice-no-stop-feedback,poldrack-single-stim,495,620749,0.0-6.3-0.3,go_nogo_deval,465,,"<div class = centerbox><p class = block-text><br>Please take this time to read your feedback and to take a short break! Press enter to continue</p><p class = block-text><strong>Average reaction time:  504 ms. Accuracy: 96%</strong></p><p class = block-text><strong>You have been responding too slowly, please respond to each shape (circle, triangle, rhombus, pentagon) as quickly and as accurately as possible.</strong></p><p class = block-text>We have detected a number of trials that <strong>required no response</strong>, where a response was made.  Please <strong>ensure that you do not respond </strong>to shapes that require no response</p></div>",13,18885,,,,,,,,,,,,,-1,-1,500,0,fixation,poldrack-single-stim,496,621251,0.0-6.3-1.3,go_nogo_deval,465,,<div class = centerbox><div class = fixation>+</div></div>,none,500,test,,,,,,,,,,,,398,32,850,0,stim,poldrack-single-stim,497,622102,0.0-6.3-2.3,go_nogo_deval,465,,<img class = center src='/static/experiments/go_nogo_deval/images/green_pentagon.png'></img>,32,850,test,green_pentagon,go1,32,0,3,,,,,,,-1,-1,1400,0,ITI,poldrack-single-stim,498,623504,0.0-6.3-3.3,go_nogo_deval,465,,<div></div>,32,1400,test,,,,,,,,,,,,-1,-1,500,0,fixation,poldrack-single-stim,499,624006,0.0-6.3-4.3,go_nogo_deval,465,,<div class = centerbox><div class = fixation>+</div></div>,none,500,test,,,,,,,,,,,,410,32,850,0,stim,poldrack-single-stim,500,624858,0.0-6.3-5.3,go_nogo_deval,465,,<img class = center src='/static/experiments/go_nogo_deval/images/green_pentagon.png'></img>,32,850,test,green_pentagon,go1,32,1,3,,,,,,,-1,-1,1400,0,ITI,poldrack-single-stim,501,626260,0.0-6.3-6.3,go_nogo_deval,465,,<div></div>,32,1400,test,,,,,,,,,,,,-1,-1,500,0,fixation,poldrack-single-stim,502,626761,0.0-6.3-7.3,go_nogo_deval,465,,<div class = centerbox><div class = fixation>+</div></div>,none,500,test,,,,,,,,,,,,399,32,850,0,stim,poldrack-single-stim,503,627613,0.0-6.3-8.3,go_nogo_deval,465,,<img class = center src='/static/experiments/go_nogo_deval/images/red_triangle.png'></img>,32,850,test,red_triangle,go2,32,2,3,,,,,,,-1,-1,1400,0,ITI,poldrack-single-stim,504,629015,0.0-6.3-9.3,go_nogo_deval,465,,<div></div>,32,1400,test,,,,,,,,,,,,-1,-1,500,0,fixation,poldrack-single-stim,505,629517,0.0-6.3-10.3,go_nogo_deval,465,,<div class = centerbox><div class = fixation>+</div></div>,none,500,test,,,,,,,,,,,,-1,-1,850,0,stim,poldrack-single-stim,506,630368,0.0-6.3-11.3,go_nogo_deval,465,,<img class = center src='/static/experiments/go_nogo_deval/images/purple_rhombus.png'></img>,32,850,test,purple_rhombus,nogo2,-1,3,3,,,,,,,-1,-1,1400,0,ITI,poldrack-single-stim,507,631770,0.0-6.3-12.3,go_nogo_deval,465,,<div></div>,32,1400,test,,,,,,,,,,,,-1,-1,500,0,fixation,poldrack-single-stim,508,632271,0.0-6.3-13.3,go_nogo_deval,465,,<div class = centerbox><div class = fixation>+</div></div>,none,500,test,,,,,,,,,,,,481,32,850,0,stim,poldrack-single-stim,509,633123,0.0-6.3-14.3,go_nogo_deval,465,,<img class = center src='/static/experiments/go_nogo_deval/images/green_pentagon.png'></img>,32,850,test,green_pentagon,go1,32,4,3,,,,,,,-1,-1,1400,0,ITI,poldrack-single-stim,510,634524,0.0-6.3-15.3,go_nogo_deval,465,,<div></div>,32,1400,test,,,,,,,,,,,,-1,-1,500,0,fixation,poldrack-single-stim,511,635026,0.0-6.3-16.3,go_nogo_deval,465,,<div class = centerbox><div class = fixation>+</div></div>,none,500,test,,,,,,,,,,,,426,32,850,0,stim,poldrack-single-stim,512,635877,0.0-6.3-17.3,go_nogo_deval,465,,<img class = center src='/static/experiments/go_nogo_deval/images/green_pentagon.png'></img>,32,850,test,green_pentagon,go1,32,5,3,,,,,,,-1,-1,1400,0,ITI,poldrack-single-stim,513,637278,0.0-6.3-18.3,go_nogo_deval,465,,<div></div>,32,1400,test,,,,,,,,,,,,-1,-1,500,0,fixation,poldrack-single-stim,514,637779,0.0-6.3-19.3,go_nogo_deval,465,,<div class = centerbox><div class = fixation>+</div></div>,none,500,test,,,,,,,,,,,,417,32,850,0,stim,poldrack-single-stim,515,638632,0.0-6.3-20.3,go_nogo_deval,465,,<img class = center src='/static/experiments/go_nogo_deval/images/green_pentagon.png'></img>,32,850,test,green_pentagon,go1,32,6,3,,,,,,,-1,-1,1400,0,ITI,poldrack-single-stim,516,640033,0.0-6.3-21.3,go_nogo_deval,465,,<div></div>,32,1400,test,,,,,,,,,,,,-1,-1,500,0,fixation,poldrack-single-stim,517,640535,0.0-6.3-22.3,go_nogo_deval,465,,<div class = centerbox><div class = fixation>+</div></div>,none,500,test,,,,,,,,,,,,-1,-1,850,0,stim,poldrack-single-stim,518,641385,0.0-6.3-23.3,go_nogo_deval,465,,<img class = center src='/static/experiments/go_nogo_deval/images/purple_rhombus.png'></img>,32,850,test,purple_rhombus,nogo2,-1,7,3,,,,,,,-1,-1,1400,0,ITI,poldrack-single-stim,519,642787,0.0-6.3-24.3,go_nogo_deval,465,,<div></div>,32,1400,test,,,,,,,,,,,,-1,-1,500,0,fixation,poldrack-single-stim,520,643289,0.0-6.3-25.3,go_nogo_deval,465,,<div class = centerbox><div class = fixation>+</div></div>,none,500,test,,,,,,,,,,,,399,32,850,0,stim,poldrack-single-stim,521,644140,0.0-6.3-26.3,go_nogo_deval,465,,<img class = center src='/static/experiments/go_nogo_deval/images/red_triangle.png'></img>,32,850,test,red_triangle,go2,32,8,3,,,,,,,-1,-1,1400,0,ITI,poldrack-single-stim,522,645541,0.0-6.3-27.3,go_nogo_deval,465,,<div></div>,32,1400,test,,,,,,,,,,,,-1,-1,500,0,fixation,poldrack-single-stim,523,646043,0.0-6.3-28.3,go_nogo_deval,465,,<div class = centerbox><div class = fixation>+</div></div>,none,500,test,,,,,,,,,,,,-1,-1,850,0,stim,poldrack-single-stim,524,646894,0.0-6.3-29.3,go_nogo_deval,465,,<img class = center src='/static/experiments/go_nogo_deval/images/blue_circle.png'></img>,32,850,test,blue_circle,nogo1,-1,9,3,,,,,,,-1,-1,1400,0,ITI,poldrack-single-stim,525,648295,0.0-6.3-30.3,go_nogo_deval,465,,<div></div>,32,1400,test,,,,,,,,,,,,-1,-1,500,0,fixation,poldrack-single-stim,526,648797,0.0-6.3-31.3,go_nogo_deval,465,,<div class = centerbox><div class = fixation>+</div></div>,none,500,test,,,,,,,,,,,,425,32,850,0,stim,poldrack-single-stim,527,649649,0.0-6.3-32.3,go_nogo_deval,465,,<img class = center src='/static/experiments/go_nogo_deval/images/green_pentagon.png'></img>,32,850,test,green_pentagon,go1,32,10,3,,,,,,,-1,-1,1400,0,ITI,poldrack-single-stim,528,651050,0.0-6.3-33.3,go_nogo_deval,465,,<div></div>,32,1400,test,,,,,,,,,,,,-1,-1,500,0,fixation,poldrack-single-stim,529,651552,0.0-6.3-34.3,go_nogo_deval,465,,<div class = centerbox><div class = fixation>+</div></div>,none,500,test,,,,,,,,,,,,-1,-1,850,0,stim,poldrack-single-stim,530,652403,0.0-6.3-35.3,go_nogo_deval,465,,<img class = center src='/static/experiments/go_nogo_deval/images/blue_circle.png'></img>,32,850,test,blue_circle,nogo1,-1,11,3,,,,,,,-1,-1,1400,0,ITI,poldrack-single-stim,531,653804,0.0-6.3-36.3,go_nogo_deval,465,,<div></div>,32,1400,test,,,,,,,,,,,,-1,-1,500,0,fixation,poldrack-single-stim,532,654306,0.0-6.3-37.3,go_nogo_deval,465,,<div class = centerbox><div class = fixation>+</div></div>,none,500,test,,,,,,,,,,,,-1,-1,850,0,stim,poldrack-single-stim,533,655158,0.0-6.3-38.3,go_nogo_deval,465,,<img class = center src='/static/experiments/go_nogo_deval/images/purple_rhombus.png'></img>,32,850,test,purple_rhombus,nogo2,-1,12,3,,,,,,,-1,-1,1400,0,ITI,poldrack-single-stim,534,656559,0.0-6.3-39.3,go_nogo_deval,465,,<div></div>,32,1400,test,,,,,,,,,,,,-1,-1,500,0,fixation,poldrack-single-stim,535,657061,0.0-6.3-40.3,go_nogo_deval,465,,<div class = centerbox><div class = fixation>+</div></div>,none,500,test,,,,,,,,,,,,420,32,850,0,stim,poldrack-single-stim,536,657913,0.0-6.3-41.3,go_nogo_deval,465,,<img class = center src='/static/experiments/go_nogo_deval/images/red_triangle.png'></img>,32,850,test,red_triangle,go2,32,13,3,,,,,,,-1,-1,1400,0,ITI,poldrack-single-stim,537,659314,0.0-6.3-42.3,go_nogo_deval,465,,<div></div>,32,1400,test,,,,,,,,,,,,-1,-1,500,0,fixation,poldrack-single-stim,538,659815,0.0-6.3-43.3,go_nogo_deval,465,,<div class = centerbox><div class = fixation>+</div></div>,none,500,test,,,,,,,,,,,,444,32,850,0,stim,poldrack-single-stim,539,660667,0.0-6.3-44.3,go_nogo_deval,465,,<img class = center src='/static/experiments/go_nogo_deval/images/green_pentagon.png'></img>,32,850,test,green_pentagon,go1,32,14,3,,,,,,,-1,-1,1400,0,ITI,poldrack-single-stim,540,662069,0.0-6.3-45.3,go_nogo_deval,465,,<div></div>,32,1400,test,,,,,,,,,,,,-1,-1,500,0,fixation,poldrack-single-stim,541,662571,0.0-6.3-46.3,go_nogo_deval,465,,<div class = centerbox><div class = fixation>+</div></div>,none,500,test,,,,,,,,,,,,410,32,850,0,stim,poldrack-single-stim,542,663422,0.0-6.3-47.3,go_nogo_deval,465,,<img class = center src='/static/experiments/go_nogo_deval/images/red_triangle.png'></img>,32,850,test,red_triangle,go2,32,15,3,,,,,,,-1,-1,1400,0,ITI,poldrack-single-stim,543,664824,0.0-6.3-48.3,go_nogo_deval,465,,<div></div>,32,1400,test,,,,,,,,,,,,-1,-1,500,0,fixation,poldrack-single-stim,544,665326,0.0-6.3-49.3,go_nogo_deval,465,,<div class = centerbox><div class = fixation>+</div></div>,none,500,test,,,,,,,,,,,,-1,-1,850,0,stim,poldrack-single-stim,545,666177,0.0-6.3-50.3,go_nogo_deval,465,,<img class = center src='/static/experiments/go_nogo_deval/images/purple_rhombus.png'></img>,32,850,test,purple_rhombus,nogo2,-1,16,3,,,,,,,-1,-1,1400,0,ITI,poldrack-single-stim,546,667579,0.0-6.3-51.3,go_nogo_deval,465,,<div></div>,32,1400,test,,,,,,,,,,,,-1,-1,500,0,fixation,poldrack-single-stim,547,668081,0.0-6.3-52.3,go_nogo_deval,465,,<div class = centerbox><div class = fixation>+</div></div>,none,500,test,,,,,,,,,,,,379,32,850,0,stim,poldrack-single-stim,548,668933,0.0-6.3-53.3,go_nogo_deval,465,,<img class = center src='/static/experiments/go_nogo_deval/images/red_triangle.png'></img>,32,850,test,red_triangle,go2,32,17,3,,,,,,,-1,-1,1400,0,ITI,poldrack-single-stim,549,670333,0.0-6.3-54.3,go_nogo_deval,465,,<div></div>,32,1400,test,,,,,,,,,,,,-1,-1,500,0,fixation,poldrack-single-stim,550,670835,0.0-6.3-55.3,go_nogo_deval,465,,<div class = centerbox><div class = fixation>+</div></div>,none,500,test,,,,,,,,,,,,448,32,850,0,stim,poldrack-single-stim,551,671687,0.0-6.3-56.3,go_nogo_deval,465,,<img class = center src='/static/experiments/go_nogo_deval/images/red_triangle.png'></img>,32,850,test,red_triangle,go2,32,18,3,,,,,,,-1,-1,1400,0,ITI,poldrack-single-stim,552,673089,0.0-6.3-57.3,go_nogo_deval,465,,<div></div>,32,1400,test,,,,,,,,,,,,-1,-1,500,0,fixation,poldrack-single-stim,553,673590,0.0-6.3-58.3,go_nogo_deval,465,,<div class = centerbox><div class = fixation>+</div></div>,none,500,test,,,,,,,,,,,,383,32,850,0,stim,poldrack-single-stim,554,674442,0.0-6.3-59.3,go_nogo_deval,465,,<img class = center src='/static/experiments/go_nogo_deval/images/red_triangle.png'></img>,32,850,test,red_triangle,go2,32,19,3,,,,,,,-1,-1,1400,0,ITI,poldrack-single-stim,555,675844,0.0-6.3-60.3,go_nogo_deval,465,,<div></div>,32,1400,test,,,,,,,,,,,,-1,-1,500,0,fixation,poldrack-single-stim,556,676346,0.0-6.3-61.3,go_nogo_deval,465,,<div class = centerbox><div class = fixation>+</div></div>,none,500,test,,,,,,,,,,,,439,32,850,0,stim,poldrack-single-stim,557,677197,0.0-6.3-62.3,go_nogo_deval,465,,<img class = center src='/static/experiments/go_nogo_deval/images/green_pentagon.png'></img>,32,850,test,green_pentagon,go1,32,20,3,,,,,,,-1,-1,1400,0,ITI,poldrack-single-stim,558,678599,0.0-6.3-63.3,go_nogo_deval,465,,<div></div>,32,1400,test,,,,,,,,,,,,-1,-1,500,0,fixation,poldrack-single-stim,559,679101,0.0-6.3-64.3,go_nogo_deval,465,,<div class = centerbox><div class = fixation>+</div></div>,none,500,test,,,,,,,,,,,,-1,-1,850,0,stim,poldrack-single-stim,560,679952,0.0-6.3-65.3,go_nogo_deval,465,,<img class = center src='/static/experiments/go_nogo_deval/images/purple_rhombus.png'></img>,32,850,test,purple_rhombus,nogo2,-1,21,3,,,,,,,-1,-1,1400,0,ITI,poldrack-single-stim,561,681354,0.0-6.3-66.3,go_nogo_deval,465,,<div></div>,32,1400,test,,,,,,,,,,,,-1,-1,500,0,fixation,poldrack-single-stim,562,681855,0.0-6.3-67.3,go_nogo_deval,465,,<div class = centerbox><div class = fixation>+</div></div>,none,500,test,,,,,,,,,,,,386,32,850,0,stim,poldrack-single-stim,563,682707,0.0-6.3-68.3,go_nogo_deval,465,,<img class = center src='/static/experiments/go_nogo_deval/images/red_triangle.png'></img>,32,850,test,red_triangle,go2,32,22,3,,,,,,,-1,-1,1400,0,ITI,poldrack-single-stim,564,684108,0.0-6.3-69.3,go_nogo_deval,465,,<div></div>,32,1400,test,,,,,,,,,,,,-1,-1,500,0,fixation,poldrack-single-stim,565,684609,0.0-6.3-70.3,go_nogo_deval,465,,<div class = centerbox><div class = fixation>+</div></div>,none,500,test,,,,,,,,,,,,-1,-1,850,0,stim,poldrack-single-stim,566,685460,0.0-6.3-71.3,go_nogo_deval,465,,<img class = center src='/static/experiments/go_nogo_deval/images/blue_circle.png'></img>,32,850,test,blue_circle,nogo1,-1,23,3,,,,,,,-1,-1,1400,0,ITI,poldrack-single-stim,567,686862,0.0-6.3-72.3,go_nogo_deval,465,,<div></div>,32,1400,test,,,,,,,,,,,,-1,-1,500,0,fixation,poldrack-single-stim,568,687364,0.0-6.3-73.3,go_nogo_deval,465,,<div class = centerbox><div class = fixation>+</div></div>,none,500,test,,,,,,,,,,,,502,32,850,0,stim,poldrack-single-stim,569,688215,0.0-6.3-74.3,go_nogo_deval,465,,<img class = center src='/static/experiments/go_nogo_deval/images/green_pentagon.png'></img>,32,850,test,green_pentagon,go1,32,24,3,,,,,,,-1,-1,1400,0,ITI,poldrack-single-stim,570,689617,0.0-6.3-75.3,go_nogo_deval,465,,<div></div>,32,1400,test,,,,,,,,,,,