text,rt,key_press,block_duration,timing_post_trial,trial_id,trial_type,trial_index,time_elapsed,internal_node_id,exp_id,subject_ID,view_history,stimulus,possible_responses,stim_duration,exp_stage,stim,go_nogo_type,correct_response,current_trial,current_block,chosenStim,chosenCond,stimLeft,cond_left,stimRight,cond_right<div class = centerbox><p class = center-block-text>Welcome to the task!</p><p class = center-block-text>Press<strong> enter</strong> to continue.</p></div>,2310,13,2310,0,welcome,poldrack-text,0,2312,0.0-0.0,go_nogo_deval,447,,,,,,,,,,,,,,,,,60460,,,,instruction,poldrack-instructions,1,62773,0.0-1.0,go_nogo_deval,447,"[{""page_index"":0,""viewing_time"":3242},{""page_index"":1,""viewing_time"":57218}]",,,,,,,,,,,,,,,,4979,13,4979,0,stop_intro_phase1,poldrack-single-stim,2,68755,0.0-2.0,go_nogo_deval,447,,"<div class = centerbox><p class = block-text>We will now start the practice for the experiment.<br><br>For these trials, you must press the <strong>spacebar </strong> or have <strong>no response</strong> depending on the shape of the stimulus.  Make sure to respond as quickly and accurately as possible to the shape. <br><br> The responses for each shape are as follows: <ul list-text><li>circle: spacebar</li><li>triangle: spacebar</li><li>rhombus: no response</li><li>pentagon: no response</li></ul></p><p class = block-text>Remember these rules before you proceed.</p><p class = block-text>Press <strong> enter</strong> to begin.</p></div>",13,4979,,,,,,,,,,,,,3226,13,3226,0,practice-no-stop-feedback,poldrack-single-stim,3,71983,0.0-3.0-0.0,go_nogo_deval,447,,<div class = centerbox><p class = block-text>We will now start with a practice session. In this practice concentrate on responding quickly and accurately to each stimuli unless it requires no response.</p><p class = block-text>Press enter to continue.</p></div>,13,3226,,,,,,,,,,,,,-1,-1,500,0,prompt_fixation,poldrack-single-stim,4,72486,0.0-3.0-1.0,go_nogo_deval,447,,<div class = centerbox><div class = fixation>+</div></div>,none,500,practice,,,,,,,,,,,,632,32,850,0,stim,poldrack-single-stim,5,73339,0.0-3.0-2.0,go_nogo_deval,447,,<img class = center src='/static/experiments/go_nogo_deval/images/red_triangle.png'></img>,32,850,practice,red_triangle,go2,32,0,0,,,,,,,-1,-1,1400,0,ITI,poldrack-single-stim,6,74741,0.0-3.0-3.0,go_nogo_deval,447,,<div></div>,32,1400,practice,,,,,,,,,,,,-1,-1,500,0,prompt_fixation,poldrack-single-stim,7,75243,0.0-3.0-4.0,go_nogo_deval,447,,<div class = centerbox><div class = fixation>+</div></div>,none,500,practice,,,,,,,,,,,,440,32,850,0,stim,poldrack-single-stim,8,76095,0.0-3.0-5.0,go_nogo_deval,447,,<img class = center src='/static/experiments/go_nogo_deval/images/blue_circle.png'></img>,32,850,practice,blue_circle,go1,32,1,0,,,,,,,-1,-1,1400,0,ITI,poldrack-single-stim,9,77497,0.0-3.0-6.0,go_nogo_deval,447,,<div></div>,32,1400,practice,,,,,,,,,,,,-1,-1,500,0,prompt_fixation,poldrack-single-stim,10,77999,0.0-3.0-7.0,go_nogo_deval,447,,<div class = centerbox><div class = fixation>+</div></div>,none,500,practice,,,,,,,,,,,,497,32,850,0,stim,poldrack-single-stim,11,78851,0.0-3.0-8.0,go_nogo_deval,447,,<img class = center src='/static/experiments/go_nogo_deval/images/red_triangle.png'></img>,32,850,practice,red_triangle,go2,32,2,0,,,,,,,-1,-1,1400,0,ITI,poldrack-single-stim,12,80253,0.0-3.0-9.0,go_nogo_deval,447,,<div></div>,32,1400,practice,,,,,,,,,,,,-1,-1,500,0,prompt_fixation,poldrack-single-stim,13,80754,0.0-3.0-10.0,go_nogo_deval,447,,<div class = centerbox><div class = fixation>+</div></div>,none,500,practice,,,,,,,,,,,,408,32,850,0,stim,poldrack-single-stim,14,81606,0.0-3.0-11.0,go_nogo_deval,447,,<img class = center src='/static/experiments/go_nogo_deval/images/red_triangle.png'></img>,32,850,practice,red_triangle,go2,32,3,0,,,,,,,-1,-1,1400,0,ITI,poldrack-single-stim,15,83008,0.0-3.0-12.0,go_nogo_deval,447,,<div></div>,32,1400,practice,,,,,,,,,,,,-1,-1,500,0,prompt_fixation,poldrack-single-stim,16,83510,0.0-3.0-13.0,go_nogo_deval,447,,<div class = centerbox><div class = fixation>+</div></div>,none,500,practice,,,,,,,,,,,,387,32,850,0,stim,poldrack-single-stim,17,84362,0.0-3.0-14.0,go_nogo_deval,447,,<img class = center src='/static/experiments/go_nogo_deval/images/blue_circle.png'></img>,32,850,practice,blue_circle,go1,32,4,0,,,,,,,-1,-1,1400,0,ITI,poldrack-single-stim,18,85764,0.0-3.0-15.0,go_nogo_deval,447,,<div></div>,32,1400,practice,,,,,,,,,,,,-1,-1,500,0,prompt_fixation,poldrack-single-stim,19,86265,0.0-3.0-16.0,go_nogo_deval,447,,<div class = centerbox><div class = fixation>+</div></div>,none,500,practice,,,,,,,,,,,,365,32,850,0,stim,poldrack-single-stim,20,87116,0.0-3.0-17.0,go_nogo_deval,447,,<img class = center src='/static/experiments/go_nogo_deval/images/blue_circle.png'></img>,32,850,practice,blue_circle,go1,32,5,0,,,,,,,-1,-1,1400,0,ITI,poldrack-single-stim,21,88518,0.0-3.0-18.0,go_nogo_deval,447,,<div></div>,32,1400,practice,,,,,,,,,,,,-1,-1,500,0,prompt_fixation,poldrack-single-stim,22,89020,0.0-3.0-19.0,go_nogo_deval,447,,<div class = centerbox><div class = fixation>+</div></div>,none,500,practice,,,,,,,,,,,,410,32,850,0,stim,poldrack-single-stim,23,89873,0.0-3.0-20.0,go_nogo_deval,447,,<img class = center src='/static/experiments/go_nogo_deval/images/green_rhombus.png'></img>,32,850,practice,green_rhombus,nogo1,-1,6,0,,,,,,,-1,-1,1400,0,ITI,poldrack-single-stim,24,91273,0.0-3.0-21.0,go_nogo_deval,447,,<div></div>,32,1400,practice,,,,,,,,,,,,-1,-1,500,0,prompt_fixation,poldrack-single-stim,25,91775,0.0-3.0-22.0,go_nogo_deval,447,,<div class = centerbox><div class = fixation>+</div></div>,none,500,practice,,,,,,,,,,,,378,32,850,0,stim,poldrack-single-stim,26,92627,0.0-3.0-23.0,go_nogo_deval,447,,<img class = center src='/static/experiments/go_nogo_deval/images/red_triangle.png'></img>,32,850,practice,red_triangle,go2,32,7,0,,,,,,,-1,-1,1400,0,ITI,poldrack-single-stim,27,94029,0.0-3.0-24.0,go_nogo_deval,447,,<div></div>,32,1400,practice,,,,,,,,,,,,-1,-1,500,0,prompt_fixation,poldrack-single-stim,28,94530,0.0-3.0-25.0,go_nogo_deval,447,,<div class = centerbox><div class = fixation>+</div></div>,none,500,practice,,,,,,,,,,,,-1,-1,850,0,stim,poldrack-single-stim,29,95382,0.0-3.0-26.0,go_nogo_deval,447,,<img class = center src='/static/experiments/go_nogo_deval/images/purple_pentagon.png'></img>,32,850,practice,purple_pentagon,nogo2,-1,8,0,,,,,,,-1,-1,1400,0,ITI,poldrack-single-stim,30,96784,0.0-3.0-27.0,go_nogo_deval,447,,<div></div>,32,1400,practice,,,,,,,,,,,,-1,-1,500,0,prompt_fixation,poldrack-single-stim,31,97286,0.0-3.0-28.0,go_nogo_deval,447,,<div class = centerbox><div class = fixation>+</div></div>,none,500,practice,,,,,,,,,,,,437,32,850,0,stim,poldrack-single-stim,32,98138,0.0-3.0-29.0,go_nogo_deval,447,,<img class = center src='/static/experiments/go_nogo_deval/images/red_triangle.png'></img>,32,850,practice,red_triangle,go2,32,9,0,,,,,,,-1,-1,1400,0,ITI,poldrack-single-stim,33,99540,0.0-3.0-30.0,go_nogo_deval,447,,<div></div>,32,1400,practice,,,,,,,,,,,,-1,-1,500,0,prompt_fixation,poldrack-single-stim,34,100042,0.0-3.0-31.0,go_nogo_deval,447,,<div class = centerbox><div class = fixation>+</div></div>,none,500,practice,,,,,,,,,,,,403,32,850,0,stim,poldrack-single-stim,35,100894,0.0-3.0-32.0,go_nogo_deval,447,,<img class = center src='/static/experiments/go_nogo_deval/images/blue_circle.png'></img>,32,850,practice,blue_circle,go1,32,10,0,,,,,,,-1,-1,1400,0,ITI,poldrack-single-stim,36,102296,0.0-3.0-33.0,go_nogo_deval,447,,<div></div>,32,1400,practice,,,,,,,,,,,,-1,-1,500,0,prompt_fixation,poldrack-single-stim,37,102797,0.0-3.0-34.0,go_nogo_deval,447,,<div class = centerbox><div class = fixation>+</div></div>,none,500,practice,,,,,,,,,,,,483,32,850,0,stim,poldrack-single-stim,38,103649,0.0-3.0-35.0,go_nogo_deval,447,,<img class = center src='/static/experiments/go_nogo_deval/images/blue_circle.png'></img>,32,850,practice,blue_circle,go1,32,11,0,,,,,,,-1,-1,1400,0,ITI,poldrack-single-stim,39,105051,0.0-3.0-36.0,go_nogo_deval,447,,<div></div>,32,1400,practice,,,,,,,,,,,,-1,-1,500,0,prompt_fixation,poldrack-single-stim,40,105553,0.0-3.0-37.0,go_nogo_deval,447,,<div class = centerbox><div class = fixation>+</div></div>,none,500,practice,,,,,,,,,,,,-1,-1,850,0,stim,poldrack-single-stim,41,106405,0.0-3.0-38.0,go_nogo_deval,447,,<img class = center src='/static/experiments/go_nogo_deval/images/purple_pentagon.png'></img>,32,850,practice,purple_pentagon,nogo2,-1,12,0,,,,,,,-1,-1,1400,0,ITI,poldrack-single-stim,42,107807,0.0-3.0-39.0,go_nogo_deval,447,,<div></div>,32,1400,practice,,,,,,,,,,,,-1,-1,500,0,prompt_fixation,poldrack-single-stim,43,108309,0.0-3.0-40.0,go_nogo_deval,447,,<div class = centerbox><div class = fixation>+</div></div>,none,500,practice,,,,,,,,,,,,-1,-1,850,0,stim,poldrack-single-stim,44,109161,0.0-3.0-41.0,go_nogo_deval,447,,<img class = center src='/static/experiments/go_nogo_deval/images/green_rhombus.png'></img>,32,850,practice,green_rhombus,nogo1,-1,13,0,,,,,,,-1,-1,1400,0,ITI,poldrack-single-stim,45,110563,0.0-3.0-42.0,go_nogo_deval,447,,<div></div>,32,1400,practice,,,,,,,,,,,,-1,-1,500,0,prompt_fixation,poldrack-single-stim,46,111064,0.0-3.0-43.0,go_nogo_deval,447,,<div class = centerbox><div class = fixation>+</div></div>,none,500,practice,,,,,,,,,,,,372,32,850,0,stim,poldrack-single-stim,47,111917,0.0-3.0-44.0,go_nogo_deval,447,,<img class = center src='/static/experiments/go_nogo_deval/images/blue_circle.png'></img>,32,850,practice,blue_circle,go1,32,14,0,,,,,,,-1,-1,1400,0,ITI,poldrack-single-stim,48,113318,0.0-3.0-45.0,go_nogo_deval,447,,<div></div>,32,1400,practice,,,,,,,,,,,,-1,-1,500,0,prompt_fixation,poldrack-single-stim,49,113820,0.0-3.0-46.0,go_nogo_deval,447,,<div class = centerbox><div class = fixation>+</div></div>,none,500,practice,,,,,,,,,,,,-1,-1,850,0,stim,poldrack-single-stim,50,114672,0.0-3.0-47.0,go_nogo_deval,447,,<img class = center src='/static/experiments/go_nogo_deval/images/green_rhombus.png'></img>,32,850,practice,green_rhombus,nogo1,-1,15,0,,,,,,,-1,-1,1400,0,ITI,poldrack-single-stim,51,116074,0.0-3.0-48.0,go_nogo_deval,447,,<div></div>,32,1400,practice,,,,,,,,,,,,-1,-1,500,0,prompt_fixation,poldrack-single-stim,52,116576,0.0-3.0-49.0,go_nogo_deval,447,,<div class = centerbox><div class = fixation>+</div></div>,none,500,practice,,,,,,,,,,,,-1,-1,850,0,stim,poldrack-single-stim,53,117428,0.0-3.0-50.0,go_nogo_deval,447,,<img class = center src='/static/experiments/go_nogo_deval/images/purple_pentagon.png'></img>,32,850,practice,purple_pentagon,nogo2,-1,16,0,,,,,,,-1,-1,1400,0,ITI,poldrack-single-stim,54,118830,0.0-3.0-51.0,go_nogo_deval,447,,<div></div>,32,1400,practice,,,,,,,,,,,,-1,-1,500,0,prompt_fixation,poldrack-single-stim,55,119331,0.0-3.0-52.0,go_nogo_deval,447,,<div class = centerbox><div class = fixation>+</div></div>,none,500,practice,,,,,,,,,,,,431,32,850,0,stim,poldrack-single-stim,56,120183,0.0-3.0-53.0,go_nogo_deval,447,,<img class = center src='/static/experiments/go_nogo_deval/images/red_triangle.png'></img>,32,850,practice,red_triangle,go2,32,17,0,,,,,,,-1,-1,1400,0,ITI,poldrack-single-stim,57,121585,0.0-3.0-54.0,go_nogo_deval,447,,<div></div>,32,1400,practice,,,,,,,,,,,,2394,13,2394,0,practice-no-stop-feedback,poldrack-single-stim,58,123981,0.0-4.0,go_nogo_deval,447,,<div class = centerbox><p class = block-text><br>Please take this time to read your feedback and to take a short break! Press enter to continue</p><p class = block-text><strong>Average reaction time:  434 ms. Accuracy: 94%</strong></p><p class = block-text>Done with this practice.</p></div>,13,2394,,,,,,,,,,,,,40184,13,40184,0,main_stop_intro_phase3,poldrack-single-stim,59,164167,0.0-5.0,go_nogo_deval,447,,"<div class = centerbox><p class = block-text>We will now start the main phase of the experiment.<br><br>These trials are the same as the trials that you have just completed. <br><br>The rules for each shape are as follows:  <br><ul list-text><li>circle: spacebar</li><li>triangle: spacebar</li><li>rhombus: no response</li><li>pentagon: no response</li></ul></p><p class = block-text>Remember these rules before you proceed, as they will no longer be presented during the trial.</p><p class = block-text>Press <strong> enter</strong> to begin.</p></div>",13,40184,,,,,,,,,,,,,921,13,921,0,practice-no-stop-feedback,poldrack-single-stim,60,165089,0.0-6.0-0.0,go_nogo_deval,447,,"<div class = centerbox><p class = block-text>We will now start with a test session. In this test, concentrate on responding quickly and accurately to each stimuli unless it requires no response.</p><p class = block-text>Press enter to continue.</p></div>",13,921,,,,,,,,,,,,,-1,-1,500,0,fixation,poldrack-single-stim,61,165590,0.0-6.0-1.0,go_nogo_deval,447,,<div class = centerbox><div class = fixation>+</div></div>,none,500,test,,,,,,,,,,,,622,32,850,0,stim,poldrack-single-stim,62,166442,0.0-6.0-2.0,go_nogo_deval,447,,<img class = center src='/static/experiments/go_nogo_deval/images/blue_circle.png'></img>,32,850,test,blue_circle,go1,32,0,0,,,,,,,-1,-1,1400,0,ITI,poldrack-single-stim,63,167844,0.0-6.0-3.0,go_nogo_deval,447,,<div></div>,32,1400,test,,,,,,,,,,,,-1,-1,500,0,fixation,poldrack-single-stim,64,168346,0.0-6.0-4.0,go_nogo_deval,447,,<div class = centerbox><div class = fixation>+</div></div>,none,500,test,,,,,,,,,,,,297,32,850,0,stim,poldrack-single-stim,65,169197,0.0-6.0-5.0,go_nogo_deval,447,,<img class = center src='/static/experiments/go_nogo_deval/images/red_triangle.png'></img>,32,850,test,red_triangle,go2,32,1,0,,,,,,,-1,-1,1400,0,ITI,poldrack-single-stim,66,170599,0.0-6.0-6.0,go_nogo_deval,447,,<div></div>,32,1400,test,,,,,,,,,,,,-1,-1,500,0,fixation,poldrack-single-stim,67,171100,0.0-6.0-7.0,go_nogo_deval,447,,<div class = centerbox><div class = fixation>+</div></div>,none,500,test,,,,,,,,,,,,-1,-1,850,0,stim,poldrack-single-stim,68,171952,0.0-6.0-8.0,go_nogo_deval,447,,<img class = center src='/static/experiments/go_nogo_deval/images/green_rhombus.png'></img>,32,850,test,green_rhombus,nogo1,-1,2,0,,,,,,,-1,-1,1400,0,ITI,poldrack-single-stim,69,173354,0.0-6.0-9.0,go_nogo_deval,447,,<div></div>,32,1400,test,,,,,,,,,,,,-1,-1,500,0,fixation,poldrack-single-stim,70,173856,0.0-6.0-10.0,go_nogo_deval,447,,<div class = centerbox><div class = fixation>+</div></div>,none,500,test,,,,,,,,,,,,435,32,850,0,stim,poldrack-single-stim,71,174707,0.0-6.0-11.0,go_nogo_deval,447,,<img class = center src='/static/experiments/go_nogo_deval/images/red_triangle.png'></img>,32,850,test,red_triangle,go2,32,3,0,,,,,,,-1,-1,1400,0,ITI,poldrack-single-stim,72,176109,0.0-6.0-12.0,go_nogo_deval,447,,<div></div>,32,1400,test,,,,,,,,,,,,-1,-1,500,0,fixation,poldrack-single-stim,73,176611,0.0-6.0-13.0,go_nogo_deval,447,,<div class = centerbox><div class = fixation>+</div></div>,none,500,test,,,,,,,,,,,,-1,-1,850,0,stim,poldrack-single-stim,74,177462,0.0-6.0-14.0,go_nogo_deval,447,,<img class = center src='/static/experiments/go_nogo_deval/images/purple_pentagon.png'></img>,32,850,test,purple_pentagon,nogo2,-1,4,0,,,,,,,-1,-1,1400,0,ITI,poldrack-single-stim,75,178864,0.0-6.0-15.0,go_nogo_deval,447,,<div></div>,32,1400,test,,,,,,,,,,,,-1,-1,500,0,fixation,poldrack-single-stim,76,179365,0.0-6.0-16.0,go_nogo_deval,447,,<div class = centerbox><div class = fixation>+</div></div>,none,500,test,,,,,,,,,,,,-1,-1,850,0,stim,poldrack-single-stim,77,180217,0.0-6.0-17.0,go_nogo_deval,447,,<img class = center src='/static/experiments/go_nogo_deval/images/green_rhombus.png'></img>,32,850,test,green_rhombus,nogo1,-1,5,0,,,,,,,-1,-1,1400,0,ITI,poldrack-single-stim,78,181618,0.0-6.0-18.0,go_nogo_deval,447,,<div></div>,32,1400,test,,,,,,,,,,,,-1,-1,500,0,fixation,poldrack-single-stim,79,182119,0.0-6.0-19.0,go_nogo_deval,447,,<div class = centerbox><div class = fixation>+</div></div>,none,500,test,,,,,,,,,,,,-1,-1,850,0,stim,poldrack-single-stim,80,182971,0.0-6.0-20.0,go_nogo_deval,447,,<img class = center src='/static/experiments/go_nogo_deval/images/green_rhombus.png'></img>,32,850,test,green_rhombus,nogo1,-1,6,0,,,,,,,-1,-1,1400,0,ITI,poldrack-single-stim,81,184372,0.0-6.0-21.0,go_nogo_deval,447,,<div></div>,32,1400,test,,,,,,,,,,,,-1,-1,500,0,fixation,poldrack-single-stim,82,184874,0.0-6.0-22.0,go_nogo_deval,447,,<div class = centerbox><div class = fixation>+</div></div>,none,500,test,,,,,,,,,,,,-1,-1,850,0,stim,poldrack-single-stim,83,185726,0.0-6.0-23.0,go_nogo_deval,447,,<img class = center src='/static/experiments/go_nogo_deval/images/purple_pentagon.png'></img>,32,850,test,purple_pentagon,nogo2,-1,7,0,,,,,,,-1,-1,1400,0,ITI,poldrack-single-stim,84,187127,0.0-6.0-24.0,go_nogo_deval,447,,<div></div>,32,1400,test,,,,,,,,,,,,-1,-1,500,0,fixation,poldrack-single-stim,85,187629,0.0-6.0-25.0,go_nogo_deval,447,,<div class = centerbox><div class = fixation>+</div></div>,none,500,test,,,,,,,,,,,,-1,-1,850,0,stim,poldrack-single-stim,86,188480,0.0-6.0-26.0,go_nogo_deval,447,,<img class = center src='/static/experiments/go_nogo_deval/images/purple_pentagon.png'></img>,32,850,test,purple_pentagon,nogo2,-1,8,0,,,,,,,-1,-1,1400,0,ITI,poldrack-single-stim,87,189881,0.0-6.0-27.0,go_nogo_deval,447,,<div></div>,32,1400,test,,,,,,,,,,,,-1,-1,500,0,fixation,poldrack-single-stim,88,190383,0.0-6.0-28.0,go_nogo_deval,447,,<div class = centerbox><div class = fixation>+</div></div>,none,500,test,,,,,,,,,,,,355,32,850,0,stim,poldrack-single-stim,89,191235,0.0-6.0-29.0,go_nogo_deval,447,,<img class = center src='/static/experiments/go_nogo_deval/images/red_triangle.png'></img>,32,850,test,red_triangle,go2,32,9,0,,,,,,,-1,-1,1400,0,ITI,poldrack-single-stim,90,192638,0.0-6.0-30.0,go_nogo_deval,447,,<div></div>,32,1400,test,,,,,,,,,,,,-1,-1,500,0,fixation,poldrack-single-stim,91,193140,0.0-6.0-31.0,go_nogo_deval,447,,<div class = centerbox><div class = fixation>+</div></div>,none,500,test,,,,,,,,,,,,422,32,850,0,stim,poldrack-single-stim,92,193992,0.0-6.0-32.0,go_nogo_deval,447,,<img class = center src='/static/experiments/go_nogo_deval/images/red_triangle.png'></img>,32,850,test,red_triangle,go2,32,10,0,,,,,,,-1,-1,1400,0,ITI,poldrack-single-stim,93,195393,0.0-6.0-33.0,go_nogo_deval,447,,<div></div>,32,1400,test,,,,,,,,,,,,-1,-1,500,0,fixation,poldrack-single-stim,94,195894,0.0-6.0-34.0,go_nogo_deval,447,,<div class = centerbox><div class = fixation>+</div></div>,none,500,test,,,,,,,,,,,,357,32,850,0,stim,poldrack-single-stim,95,196745,0.0-6.0-35.0,go_nogo_deval,447,,<img class = center src='/static/experiments/go_nogo_deval/images/blue_circle.png'></img>,32,850,test,blue_circle,go1,32,11,0,,,,,,,-1,-1,1400,0,ITI,poldrack-single-stim,96,198147,0.0-6.0-36.0,go_nogo_deval,447,,<div></div>,32,1400,test,,,,,,,,,,,,-1,-1,500,0,fixation,poldrack-single-stim,97,198649,0.0-6.0-37.0,go_nogo_deval,447,,<div class = centerbox><div class = fixation>+</div></div>,none,500,test,,,,,,,,,,,,482,32,850,0,stim,poldrack-single-stim,98,199501,0.0-6.0-38.0,go_nogo_deval,447,,<img class = center src='/static/experiments/go_nogo_deval/images/red_triangle.png'></img>,32,850,test,red_triangle,go2,32,12,0,,,,,,,-1,-1,1400,0,ITI,poldrack-single-stim,99,200902,0.0-6.0-39.0,go_nogo_deval,447,,<div></div>,32,1400,test,,,,,,,,,,,,-1,-1,500,0,fixation,poldrack-single-stim,100,201403,0.0-6.0-40.0,go_nogo_deval,447,,<div class = centerbox><div class = fixation>+</div></div>,none,500,test,,,,,,,,,,,,327,32,850,0,stim,poldrack-single-stim,101,202254,0.0-6.0-41.0,go_nogo_deval,447,,<img class = center src='/static/experiments/go_nogo_deval/images/blue_circle.png'></img>,32,850,test,blue_circle,go1,32,13,0,,,,,,,-1,-1,1400,0,ITI,poldrack-single-stim,102,203655,0.0-6.0-42.0,go_nogo_deval,447,,<div></div>,32,1400,test,,,,,,,,,,,,-1,-1,500,0,fixation,poldrack-single-stim,103,204157,0.0-6.0-43.0,go_nogo_deval,447,,<div class = centerbox><div class = fixation>+</div></div>,none,500,test,,,,,,,,,,,,-1,-1,850,0,stim,poldrack-single-stim,104,205009,0.0-6.0-44.0,go_nogo_deval,447,,<img class = center src='/static/experiments/go_nogo_deval/images/green_rhombus.png'></img>,32,850,test,green_rhombus,nogo1,-1,14,0,,,,,,,-1,-1,1400,0,ITI,poldrack-single-stim,105,206410,0.0-6.0-45.0,go_nogo_deval,447,,<div></div>,32,1400,test,,,,,,,,,,,,-1,-1,500,0,fixation,poldrack-single-stim,106,206912,0.0-6.0-46.0,go_nogo_deval,447,,<div class = centerbox><div class = fixation>+</div></div>,none,500,test,,,,,,,,,,,,432,32,850,0,stim,poldrack-single-stim,107,207763,0.0-6.0-47.0,go_nogo_deval,447,,<img class = center src='/static/experiments/go_nogo_deval/images/blue_circle.png'></img>,32,850,test,blue_circle,go1,32,15,0,,,,,,,-1,-1,1400,0,ITI,poldrack-single-stim,108,209165,0.0-6.0-48.0,go_nogo_deval,447,,<div></div>,32,1400,test,,,,,,,,,,,,-1,-1,500,0,fixation,poldrack-single-stim,109,209667,0.0-6.0-49.0,go_nogo_deval,447,,<div class = centerbox><div class = fixation>+</div></div>,none,500,test,,,,,,,,,,,,320,32,850,0,stim,poldrack-single-stim,110,210518,0.0-6.0-50.0,go_nogo_deval,447,,<img class = center src='/static/experiments/go_nogo_deval/images/red_triangle.png'></img>,32,850,test,red_triangle,go2,32,16,0,,,,,,,-1,-1,1400,0,ITI,poldrack-single-stim,111,211920,0.0-6.0-51.0,go_nogo_deval,447,,<div></div>,32,1400,test,,,,,,,,,,,,-1,-1,500,0,fixation,poldrack-single-stim,112,212421,0.0-6.0-52.0,go_nogo_deval,447,,<div class = centerbox><div class = fixation>+</div></div>,none,500,test,,,,,,,,,,,,346,32,850,0,stim,poldrack-single-stim,113,213272,0.0-6.0-53.0,go_nogo_deval,447,,<img class = center src='/static/experiments/go_nogo_deval/images/blue_circle.png'></img>,32,850,test,blue_circle,go1,32,17,0,,,,,,,-1,-1,1400,0,ITI,poldrack-single-stim,114,214673,0.0-6.0-54.0,go_nogo_deval,447,,<div></div>,32,1400,test,,,,,,,,,,,,-1,-1,500,0,fixation,poldrack-single-stim,115,215175,0.0-6.0-55.0,go_nogo_deval,447,,<div class = centerbox><div class = fixation>+</div></div>,none,500,test,,,,,,,,,,,,-1,-1,850,0,stim,poldrack-single-stim,116,216027,0.0-6.0-56.0,go_nogo_deval,447,,<img class = center src='/static/experiments/go_nogo_deval/images/purple_pentagon.png'></img>,32,850,test,purple_pentagon,nogo2,-1,18,0,,,,,,,-1,-1,1400,0,ITI,poldrack-single-stim,117,217428,0.0-6.0-57.0,go_nogo_deval,447,,<div></div>,32,1400,test,,,,,,,,,,,,-1,-1,500,0,fixation,poldrack-single-stim,118,217929,0.0-6.0-58.0,go_nogo_deval,447,,<div class = centerbox><div class = fixation>+</div></div>,none,500,test,,,,,,,,,,,,394,32,850,0,stim,poldrack-single-stim,119,218780,0.0-6.0-59.0,go_nogo_deval,447,,<img class = center src='/static/experiments/go_nogo_deval/images/blue_circle.png'></img>,32,850,test,blue_circle,go1,32,19,0,,,,,,,-1,-1,1400,0,ITI,poldrack-single-stim,120,220182,0.0-6.0-60.0,go_nogo_deval,447,,<div></div>,32,1400,test,,,,,,,,,,,,-1,-1,500,0,fixation,poldrack-single-stim,121,220683,0.0-6.0-61.0,go_nogo_deval,447,,<div class = centerbox><div class = fixation>+</div></div>,none,500,test,,,,,,,,,,,,341,32,850,0,stim,poldrack-single-stim,122,221535,0.0-6.0-62.0,go_nogo_deval,447,,<img class = center src='/static/experiments/go_nogo_deval/images/red_triangle.png'></img>,32,850,test,red_triangle,go2,32,20,0,,,,,,,-1,-1,1400,0,ITI,poldrack-single-stim,123,222936,0.0-6.0-63.0,go_nogo_deval,447,,<div></div>,32,1400,test,,,,,,,,,,,,-1,-1,500,0,fixation,poldrack-single-stim,124,223438,0.0-6.0-64.0,go_nogo_deval,447,,<div class = centerbox><div class = fixation>+</div></div>,none,500,test,,,,,,,,,,,,-1,-1,850,0,stim,poldrack-single-stim,125,224289,0.0-6.0-65.0,go_nogo_deval,447,,<img class = center src='/static/experiments/go_nogo_deval/images/green_rhombus.png'></img>,32,850,test,green_rhombus,nogo1,-1,21,0,,,,,,,-1,-1,1400,0,ITI,poldrack-single-stim,126,225691,0.0-6.0-66.0,go_nogo_deval,447,,<div></div>,32,1400,test,,,,,,,,,,,,-1,-1,500,0,fixation,poldrack-single-stim,127,226193,0.0-6.0-67.0,go_nogo_deval,447,,<div class = centerbox><div class = fixation>+</div></div>,none,500,test,,,,,,,,,,,,-1,-1,850,0,stim,poldrack-single-stim,128,227044,0.0-6.0-68.0,go_nogo_deval,447,,<img class = center src='/static/experiments/go_nogo_deval/images/purple_pentagon.png'></img>,32,850,test,purple_pentagon,nogo2,-1,22,0,,,,,,,-1,-1,1400,0,ITI,poldrack-single-stim,129,228445,0.0-6.0-69.0,go_nogo_deval,447,,<div></div>,32,1400,test,,,,,,,,,,,,-1,-1,500,0,fixation,poldrack-single-stim,130,228947,0.0-6.0-70.0,go_nogo_deval,447,,<div class = centerbox><div class = fixation>+</div></div>,none,500,test,,,,,,,,,,,,391,32,850,0,stim,poldrack-single-stim,131,229799,0.0-6.0-71.0,go_nogo_deval,447,,<img class = center src='/static/experiments/go_nogo_deval/images/blue_circle.png'></img>,32,850,test,blue_circle,go1,32,23,0,,,,,,,-1,-1,1400,0,ITI,poldrack-single-stim,132,231201,0.0-6.0-72.0,go_nogo_deval,447,,<div></div>,32,1400,test,,,,,,,,,,,,-1,-1,500,0,fixation,poldrack-single-stim,133,231703,0.0-6.0-73.0,go_nogo_deval,447,,<div class = centerbox><div class = fixation>+</div></div>,none,500,test,,,,,,,,,,,,367,32,850,0,stim,poldrack-single-stim,134,232555,0.0-6.0-74.0,go_nogo_deval,447,,<img class = center src='/static/experiments/go_nogo_deval/images/red_triangle.png'></img>,32,850,test,red_triangle,go2,32,24,0,,,,,,,-1,-1,1400,0,ITI,poldrack-single-stim,135,233957,0.0-6.0-75.0,go_nogo_deval,447,,<div></div>,32,1400,test,,,,,,,,,,,,-1,-1,500,0,fixation,poldrack-single-stim,136,234459,0.0-6.0-76.0,go_nogo_deval,447,,<div class = centerbox><div class = fixation>+</div></div>,none,500,test,,,,,,,,,,,,312,32,850,0,stim,poldrack-single-stim,137,235311,0.0-6.0-77.0,go_nogo_deval,447,,<img class = center src='/static/experiments/go_nogo_deval/images/red_triangle.png'></img>,32,850,test,red_triangle,go2,32,25,0,,,,,,,-1,-1,1400,0,ITI,poldrack-single-stim,138,236713,0.0-6.0-78.0,go_nogo_deval,447,,<div></div>,32,1400,test,,,,,,,,,,,,-1,-1,500,0,fixation,poldrack-single-stim,139,237214,0.0-6.0-79.0,go_nogo_deval,447,,<div class = centerbox><div class = fixation>+</div></div>,none,500,test,,,,,,,,,,,,-1,-1,850,0,stim,poldrack-single-stim,140,238066,0.0-6.0-80.0,go_nogo_deval,447,,<img class = center src='/static/experiments/go_nogo_deval/images/purple_pentagon.png'></img>,32,850,test,purple_pentagon,nogo2,-1,26,0,,,,,,,-1,-1,1400,0,ITI,poldrack-single-stim,141,239467,0.0-6.0-81.0,go_nogo_deval,447,,<div></div>,32,1400,test,,,,,,,,,,,,-1,-1,500,0,fixation,poldrack-single-stim,142,239968,0.0-6.0-82.0,go_nogo_deval,447,,<div class = centerbox><div class = fixation>+</div></div>,none,500,test,,,,,,,,,,,,339,32,850,0,stim,poldrack-single-stim,143,240820,0.0-6.0-83.0,go_nogo_deval,447,,<img class = center src='/static/experiments/go_nogo_deval/images/red_triangle.png'></img>,32,850,test,red_triangle,go2,32,27,0,,,,,,,-1,-1,1400,0,ITI,poldrack-single-stim,144,242222,0.0-6.0-84.0,go_nogo_deval,447,,<div></div>,32,1400,test,,,,,,,,,,,,-1,-1,500,0,fixation,poldrack-single-stim,145,242724,0.0-6.0-85.0,go_nogo_deval,447,,<div class = centerbox><div class = fixation>+</div></div>,none,500,test,,,,,,,,,,,,-1,-1,850,0,stim,poldrack-single-stim,146,243576,0.0-6.0-86.0,go_nogo_deval,447,,<img class = center src='/static/experiments/go_nogo_deval/images/green_rhombus.png'></img>,32,850,test,green_rhombus,nogo1,-1,28,0,,,,,,,-1,-1,1400,0,ITI,poldrack-single-stim,147,244977,0.0-6.0-87.0,go_nogo_deval,447,,<div></div>,32,1400,test,,,,,,,,,,,,-1,-1,500,0,fixation,poldrack-single-stim,148,245478,0.0-6.0-88.0,go_nogo_deval,447,,<div class = centerbox><div class = fixation>+</div></div>,none,500,test,,,,,,,,,,,,408,32,850,0,stim,poldrack-single-stim,149,246329,0.0-6.0-89.0,go_nogo_deval,447,,<img class = center src='/static/experiments/go_nogo_deval/images/blue_circle.png'></img>,32,850,test,blue_circle,go1,32,29,0,,,,,,,-1,-1,1400,0,ITI,poldrack-single-stim,150,247731,0.0-6.0-90.0,go_nogo_deval,447,,<div></div>,32,1400,test,,,,,,,,,,,,-1,-1,500,0,fixation,poldrack-single-stim,151,248233,0.0-6.0-91.0,go_nogo_deval,447,,<div class = centerbox><div class = fixation>+</div></div>,none,500,test,,,,,,,,,,,,331,32,850,0,stim,poldrack-single-stim,152,249085,0.0-6.0-92.0,go_nogo_deval,447,,<img class = center src='/static/experiments/go_nogo_deval/images/red_triangle.png'></img>,32,850,test,red_triangle,go2,32,30,0,,,,,,,-1,-1,1400,0,ITI,poldrack-single-stim,153,250486,0.0-6.0-93.0,go_nogo_deval,447,,<div></div>,32,1400,test,,,,,,,,,,,,-1,-1,500,0,fixation,poldrack-single-stim,154,250987,0.0-6.0-94.0,go_nogo_deval,447,,<div class = centerbox><div class = fixation>+</div></div>,none,500,test,,,,,,,,,,,,355,32,850,0,stim,poldrack-single-stim,155,251840,0.0-6.0-95.0,go_nogo_deval,447,,<img class = center src='/static/experiments/go_nogo_deval/images/red_triangle.png'></img>,32,850,test,red_triangle,go2,32,31,0,,,,,,,-1,-1,1400,0,ITI,poldrack-single-stim,156,253242,0.0-6.0-96.0,go_nogo_deval,447,,<div></div>,32,1400,test,,,,,,,,,,,,-1,-1,500,0,fixation,poldrack-single-stim,157,253742,0.0-6.0-97.0,go_nogo_deval,447,,<div class = centerbox><div class = fixation>+</div></div>,none,500,test,,,,,,,,,,,,379,32,850,0,stim,poldrack-single-stim,158,254594,0.0-6.0-98.0,go_nogo_deval,447,,<img class = center src='/static/experiments/go_nogo_deval/images/blue_circle.png'></img>,32,850,test,blue_circle,go1,32,32,0,,,,,,,-1,-1,1400,0,ITI,poldrack-single-stim,159,255996,0.0-6.0-99.0,go_nogo_deval,447,,<div></div>,32,1400,test,,,,,,,,,,,,-1,-1,500,0,fixation,poldrack-single-stim,160,256498,0.0-6.0-100.0,go_nogo_deval,447,,<div class = centerbox><div class = fixation>+</div></div>,none,500,test,,,,,,,,,,,,346,32,850,0,stim,poldrack-single-stim,161,257350,0.0-6.0-101.0,go_nogo_deval,447,,<img class = center src='/static/experiments/go_nogo_deval/images/blue_circle.png'></img>,32,850,test,blue_circle,go1,32,33,0,,,,,,,-1,-1,1400,0,ITI,poldrack-single-stim,162,258752,0.0-6.0-102.0,go_nogo_deval,447,,<div></div>,32,1400,test,,,,,,,,,,,,-1,-1,500,0,fixation,poldrack-single-stim,163,259253,0.0-6.0-103.0,go_nogo_deval,447,,<div class = centerbox><div class = fixation>+</div></div>,none,500,test,,,,,,,,,,,,425,32,850,0,stim,poldrack-single-stim,164,260106,0.0-6.0-104.0,go_nogo_deval,447,,<img class = center src='/static/experiments/go_nogo_deval/images/blue_circle.png'></img>,32,850,test,blue_circle,go1,32,34,0,,,,,,,-1,-1,1400,0,ITI,poldrack-single-stim,165,261507,0.0-6.0-105.0,go_nogo_deval,447,,<div></div>,32,1400,test,,,,,,,,,,,,-1,-1,500,0,fixation,poldrack-single-stim,166,262009,0.0-6.0-106.0,go_nogo_deval,447,,<div class = centerbox><div class = fixation>+</div></div>,none,500,test,,,,,,,,,,,,359,32,850,0,stim,poldrack-single-stim,167,262860,0.0-6.0-107.0,go_nogo_deval,447,,<img class = center src='/static/experiments/go_nogo_deval/images/green_rhombus.png'></img>,32,850,test,green_rhombus,nogo1,-1,35,0,,,,,,,-1,-1,1400,0,ITI,poldrack-single-stim,168,264262,0.0-6.0-108.0,go_nogo_deval,447,,<div></div>,32,1400,test,,,,,,,,,,,,-1,-1,500,0,fixation,poldrack-single-stim,169,264763,0.0-6.0-109.0,go_nogo_deval,447,,<div class = centerbox><div class = fixation>+</div></div>,none,500,test,,,,,,,,,,,,349,32,850,0,stim,poldrack-single-stim,170,265615,0.0-6.0-110.0,go_nogo_deval,447,,<img class = center src='/static/experiments/go_nogo_deval/images/red_triangle.png'></img>,32,850,test,red_triangle,go2,32,36,0,,,,,,,-1,-1,1400,0,ITI,poldrack-single-stim,171,267017,0.0-6.0-111.0,go_nogo_deval,447,,<div></div>,32,1400,test,,,,,,,,,,,,-1,-1,500,0,fixation,poldrack-single-stim,172,267519,0.0-6.0-112.0,go_nogo_deval,447,,<div class = centerbox><div class = fixation>+</div></div>,none,500,test,,,,,,,,,,,,316,32,850,0,stim,poldrack-single-stim,173,268370,0.0-6.0-113.0,go_nogo_deval,447,,<img class = center src='/static/experiments/go_nogo_deval/images/blue_circle.png'></img>,32,850,test,blue_circle,go1,32,37,0,,,,,,,-1,-1,1400,0,ITI,poldrack-single-stim,174,269772,0.0-6.0-114.0,go_nogo_deval,447,,<div></div>,32,1400,test,,,,,,,,,,,,-1,-1,500,0,fixation,poldrack-single-stim,175,270273,0.0-6.0-115.0,go_nogo_deval,447,,<div class = centerbox><div class = fixation>+</div></div>,none,500,test,,,,,,,,,,,,329,32,850,0,stim,poldrack-single-stim,176,271125,0.0-6.0-116.0,go_nogo_deval,447,,<img class = center src='/static/experiments/go_nogo_deval/images/red_triangle.png'></img>,32,850,test,red_triangle,go2,32,38,0,,,,,,,-1,-1,1400,0,ITI,poldrack-single-stim,177,272526,0.0-6.0-117.0,go_nogo_deval,447,,<div></div>,32,1400,test,,,,,,,,,,,,-1,-1,500,0,fixation,poldrack-single-stim,178,273028,0.0-6.0-118.0,go_nogo_deval,447,,<div class = centerbox><div class = fixation>+</div></div>,none,500,test,,,,,,,,,,,,-1,-1,850,0,stim,poldrack-single-stim,179,273879,0.0-6.0-119.0,go_nogo_deval,447,,<img class = center src='/static/experiments/go_nogo_deval/images/purple_pentagon.png'></img>,32,850,test,purple_pentagon,nogo2,-1,39,0,,,,,,,-1,-1,1400,0,ITI,poldrack-single-stim,180,275280,0.0-6.0-120.0,go_nogo_deval,447,,<div></div>,32,1400,test,,,,,,,,,,,,-1,-1,500,0,fixation,poldrack-single-stim,181,275782,0.0-6.0-121.0,go_nogo_deval,447,,<div class = centerbox><div class = fixation>+</div></div>,none,500,test,,,,,,,,,,,,412,32,850,0,stim,poldrack-single-stim,182,276634,0.0-6.0-122.0,go_nogo_deval,447,,<img class = center src='/static/experiments/go_nogo_deval/images/blue_circle.png'></img>,32,850,test,blue_circle,go1,32,40,0,,,,,,,-1,-1,1400,0,ITI,poldrack-single-stim,183,278036,0.0-6.0-123.0,go_nogo_deval,447,,<div></div>,32,1400,test,,,,,,,,,,,,-1,-1,500,0,fixation,poldrack-single-stim,184,278538,0.0-6.0-124.0,go_nogo_deval,447,,<div class = centerbox><div class = fixation>+</div></div>,none,500,test,,,,,,,,,,,,-1,-1,850,0,stim,poldrack-single-stim,185,279390,0.0-6.0-125.0,go_nogo_deval,447,,<img class = center src='/static/experiments/go_nogo_deval/images/green_rhombus.png'></img>,32,850,test,green_rhombus,nogo1,-1,41,0,,,,,,,-1,-1,1400,0,ITI,poldrack-single-stim,186,280792,0.0-6.0-126.0,go_nogo_deval,447,,<div></div>,32,1400,test,,,,,,,,,,,,-1,-1,500,0,fixation,poldrack-single-stim,187,281294,0.0-6.0-127.0,go_nogo_deval,447,,<div class = centerbox><div class = fixation>+</div></div>,none,500,test,,,,,,,,,,,,311,32,850,0,stim,poldrack-single-stim,188,282145,0.0-6.0-128.0,go_nogo_deval,447,,<img class = center src='/static/experiments/go_nogo_deval/images/blue_circle.png'></img>,32,850,test,blue_circle,go1,32,42,0,,,,,,,-1,-1,1400,0,ITI,poldrack-single-stim,189,283546,0.0-6.0-129.0,go_nogo_deval,447,,<div></div>,32,1400,test,,,,,,,,,,,,-1,-1,500,0,fixation,poldrack-single-stim,190,284048,0.0-6.0-130.0,go_nogo_deval,447,,<div class = centerbox><div class = fixation>+</div></div>,none,500,test,,,,,,,,,,,,404,32,850,0,stim,poldrack-single-stim,191,284900,0.0-6.0-131.0,go_nogo_deval,447,,<img class = center src='/static/experiments/go_nogo_deval/images/blue_circle.png'></img>,32,850,test,blue_circle,go1,32,43,0,,,,,,,-1,-1,1400,0,ITI,poldrack-single-stim,192,286301,0.0-6.0-132.0,go_nogo_deval,447,,<div></div>,32,1400,test,,,,,,,,,,,,-1,-1,500,0,fixation,poldrack-single-stim,193,286803,0.0-6.0-133.0,go_nogo_deval,447,,<div class = centerbox><div class = fixation>+</div></div>,none,500,test,,,,,,,,,,,,-1,-1,850,0,stim,poldrack-single-stim,194,287653,0.0-6.0-134.0,go_nogo_deval,447,,<img class = center src='/static/experiments/go_nogo_deval/images/purple_pentagon.png'></img>,32,850,test,purple_pentagon,nogo2,-1,44,0,,,,,,,-1,-1,1400,0,ITI,poldrack-single-stim,195,289054,0.0-6.0-135.0,go_nogo_deval,447,,<div></div>,32,1400,test,,,,,,,,,,,,-1,-1,500,0,fixation,poldrack-single-stim,196,289556,0.0-6.0-136.0,go_nogo_deval,447,,<div class = centerbox><div class = fixation>+</div></div>,none,500,test,,,,,,,,,,,,341,32,850,0,stim,poldrack-single-stim,197,290408,0.0-6.0-137.0,go_nogo_deval,447,,<img class = center src='/static/experiments/go_nogo_deval/images/red_triangle.png'></img>,32,850,test,red_triangle,go2,32,45,0,,,,,,,-1,-1,1400,0,ITI,poldrack-single-stim,198,291809,0.0-6.0-138.0,go_nogo_deval,447,,<div></div>,32,1400,test,,,,,,,,,,,,-1,-1,500,0,fixation,poldrack-single-stim,199,292311,0.0-6.0-139.0,go_nogo_deval,447,,<div class = centerbox><div class = fixation>+</div></div>,none,500,test,,,,,,,,,,,,319,32,850,0,stim,poldrack-single-stim,200,293162,0.0-6.0-140.0,go_nogo_deval,447,,<img class = center src='/static/experiments/go_nogo_deval/images/red_triangle.png'></img>,32,850,test,red_triangle,go2,32,46,0,,,,,,,-1,-1,1400,0,ITI,poldrack-single-stim,201,294564,0.0-6.0-141.0,go_nogo_deval,447,,<div></div>,32,1400,test,,,,,,,,,,,,-1,-1,500,0,fixation,poldrack-single-stim,202,295066,0.0-6.0-142.0,go_nogo_deval,447,,<div class = centerbox><div class = fixation>+</div></div>,none,500,test,,,,,,,,,,,,422,32,850,0,stim,poldrack-single-stim,203,295917,0.0-6.0-143.0,go_nogo_deval,447,,<img class = center src='/static/experiments/go_nogo_deval/images/blue_circle.png'></img>,32,850,test,blue_circle,go1,32,47,0,,,,,,,-1,-1,1400,0,ITI,poldrack-single-stim,204,297318,0.0-6.0-144.0,go_nogo_deval,447,,<div></div>,32,1400,test,,,,,,,,,,,,9733,13,9733,0,practice-no-stop-feedback,poldrack-single-stim,205,307054,0.0-6.1-0.1,go_nogo_deval,447,,<div class = centerbox><p class = block-text><br>Please take this time to read your feedback and to take a short break! Press enter to continue</p><p class = block-text><strong>Average reaction time:  374 ms. Accuracy: 98%</strong></p></div>,13,9733,,,,,,,,,,,,,-1,-1,500,0,fixation,poldrack-single-stim,206,307556,0.0-6.1-1.1,go_nogo_deval,447,,<div class = centerbox><div class = fixation>+</div></div>,none,500,test,,,,,,,,,,,,352,32,850,0,stim,poldrack-single-stim,207,308408,0.0-6.1-2.1,go_nogo_deval,447,,<img class = center src='/static/experiments/go_nogo_deval/images/blue_circle.png'></img>,32,850,test,blue_circle,go1,32,0,1,,,,,,,-1,-1,1400,0,ITI,poldrack-single-stim,208,309809,0.0-6.1-3.1,go_nogo_deval,447,,<div></div>,32,1400,test,,,,,,,,,,,,-1,-1,500,0,fixation,poldrack-single-stim,209,310311,0.0-6.1-4.1,go_nogo_deval,447,,<div class = centerbox><div class = fixation>+</div></div>,none,500,test,,,,,,,,,,,,-1,-1,850,0,stim,poldrack-single-stim,210,311162,0.0-6.1-5.1,go_nogo_deval,447,,<img class = center src='/static/experiments/go_nogo_deval/images/purple_pentagon.png'></img>,32,850,test,purple_pentagon,nogo2,-1,1,1,,,,,,,-1,-1,1400,0,ITI,poldrack-single-stim,211,312564,0.0-6.1-6.1,go_nogo_deval,447,,<div></div>,32,1400,test,,,,,,,,,,,,-1,-1,500,0,fixation,poldrack-single-stim,212,313066,0.0-6.1-7.1,go_nogo_deval,447,,<div class = centerbox><div class = fixation>+</div></div>,none,500,test,,,,,,,,,,,,332,32,850,0,stim,poldrack-single-stim,213,313918,0.0-6.1-8.1,go_nogo_deval,447,,<img class = center src='/static/experiments/go_nogo_deval/images/red_triangle.png'></img>,32,850,test,red_triangle,go2,32,2,1,,,,,,,-1,-1,1400,0,ITI,poldrack-single-stim,214,315319,0.0-6.1-9.1,go_nogo_deval,447,,<div></div>,32,1400,test,,,,,,,,,,,,-1,-1,500,0,fixation,poldrack-single-stim,215,315820,0.0-6.1-10.1,go_nogo_deval,447,,<div class = centerbox><div class = fixation>+</div></div>,none,500,test,,,,,,,,,,,,-1,-1,850,0,stim,poldrack-single-stim,216,316671,0.0-6.1-11.1,go_nogo_deval,447,,<img class = center src='/static/experiments/go_nogo_deval/images/purple_pentagon.png'></img>,32,850,test,purple_pentagon,nogo2,-1,3,1,,,,,,,-1,-1,1400,0,ITI,poldrack-single-stim,217,318073,0.0-6.1-12.1,go_nogo_deval,447,,<div></div>,32,1400,test,,,,,,,,,,,,-1,-1,500,0,fixation,poldrack-single-stim,218,318575,0.0-6.1-13.1,go_nogo_deval,447,,<div class = centerbox><div class = fixation>+</div></div>,none,500,test,,,,,,,,,,,,314,32,850,0,stim,poldrack-single-stim,219,319427,0.0-6.1-14.1,go_nogo_deval,447,,<img class = center src='/static/experiments/go_nogo_deval/images/red_triangle.png'></img>,32,850,test,red_triangle,go2,32,4,1,,,,,,,-1,-1,1400,0,ITI,poldrack-single-stim,220,320829,0.0-6.1-15.1,go_nogo_deval,447,,<div></div>,32,1400,test,,,,,,,,,,,,-1,-1,500,0,fixation,poldrack-single-stim,221,321329,0.0-6.1-16.1,go_nogo_deval,447,,<div class = centerbox><div class = fixation>+</div></div>,none,500,test,,,,,,,,,,,,314,32,850,0,stim,poldrack-single-stim,222,322181,0.0-6.1-17.1,go_nogo_deval,447,,<img class = center src='/static/experiments/go_nogo_deval/images/blue_circle.png'></img>,32,850,test,blue_circle,go1,32,5,1,,,,,,,-1,-1,1400,0,ITI,poldrack-single-stim,223,323583,0.0-6.1-18.1,go_nogo_deval,447,,<div></div>,32,1400,test,,,,,,,,,,,,-1,-1,500,0,fixation,poldrack-single-stim,224,324084,0.0-6.1-19.1,go_nogo_deval,447,,<div class = centerbox><div class = fixation>+</div></div>,none,500,test,,,,,,,,,,,,328,32,850,0,stim,poldrack-single-stim,225,324936,0.0-6.1-20.1,go_nogo_deval,447,,<img class = center src='/static/experiments/go_nogo_deval/images/red_triangle.png'></img>,32,850,test,red_triangle,go2,32,6,1,,,,,,,-1,-1,1400,0,ITI,poldrack-single-stim,226,326337,0.0-6.1-21.1,go_nogo_deval,447,,<div></div>,32,1400,test,,,,,,,,,,,,-1,-1,500,0,fixation,poldrack-single-stim,227,326839,0.0-6.1-22.1,go_nogo_deval,447,,<div class = centerbox><div class = fixation>+</div></div>,none,500,test,,,,,,,,,,,,362,32,850,0,stim,poldrack-single-stim,228,327691,0.0-6.1-23.1,go_nogo_deval,447,,<img class = center src='/static/experiments/go_nogo_deval/images/blue_circle.png'></img>,32,850,test,blue_circle,go1,32,7,1,,,,,,,-1,-1,1400,0,ITI,poldrack-single-stim,229,329092,0.0-6.1-24.1,go_nogo_deval,447,,<div></div>,32,1400,test,,,,,,,,,,,,-1,-1,500,0,fixation,poldrack-single-stim,230,329593,0.0-6.1-25.1,go_nogo_deval,447,,<div class = centerbox><div class = fixation>+</div></div>,none,500,test,,,,,,,,,,,,-1,-1,850,0,stim,poldrack-single-stim,231,330445,0.0-6.1-26.1,go_nogo_deval,447,,<img class = center src='/static/experiments/go_nogo_deval/images/green_rhombus.png'></img>,32,850,test,green_rhombus,nogo1,-1,8,1,,,,,,,-1,-1,1400,0,ITI,poldrack-single-stim,232,331847,0.0-6.1-27.1,go_nogo_deval,447,,<div></div>,32,1400,test,,,,,,,,,,,,-1,-1,500,0,fixation,poldrack-single-stim,233,332349,0.0-6.1-28.1,go_nogo_deval,447,,<div class = centerbox><div class = fixation>+</div></div>,none,500,test,,,,,,,,,,,,355,32,850,0,stim,poldrack-single-stim,234,333201,0.0-6.1-29.1,go_nogo_deval,447,,<img class = center src='/static/experiments/go_nogo_deval/images/red_triangle.png'></img>,32,850,test,red_triangle,go2,32,9,1,,,,,,,-1,-1,1400,0,ITI,poldrack-single-stim,235,334602,0.0-6.1-30.1,go_nogo_deval,447,,<div></div>,32,1400,test,,,,,,,,,,,,-1,-1,500,0,fixation,poldrack-single-stim,236,335104,0.0-6.1-31.1,go_nogo_deval,447,,<div class = centerbox><div class = fixation>+</div></div>,none,500,test,,,,,,,,,,,,-1,-1,850,0,stim,poldrack-single-stim,237,335956,0.0-6.1-32.1,go_nogo_deval,447,,<img class = center src='/static/experiments/go_nogo_deval/images/green_rhombus.png'></img>,32,850,test,green_rhombus,nogo1,-1,10,1,,,,,,,-1,-1,1400,0,ITI,poldrack-single-stim,238,337357,0.0-6.1-33.1,go_nogo_deval,447,,<div></div>,32,1400,test,,,,,,,,,,,,-1,-1,500,0,fixation,poldrack-single-stim,239,337858,0.0-6.1-34.1,go_nogo_deval,447,,<div class = centerbox><div class = fixation>+</div></div>,none,500,test,,,,,,,,,,,,392,32,850,0,stim,poldrack-single-stim,240,338710,0.0-6.1-35.1,go_nogo_deval,447,,<img class = center src='/static/experiments/go_nogo_deval/images/red_triangle.png'></img>,32,850,test,red_triangle,go2,32,11,1,,,,,,,-1,-1,1400,0,ITI,poldrack-single-stim,241,340112,0.0-6.1-36.1,go_nogo_deval,447,,<div></div>,32,1400,test,,,,,,,,,,,,-1,-1,500,0,fixation,poldrack-single-stim,242,340613,0.0-6.1-37.1,go_nogo_deval,447,,<div class = centerbox><div class = fixation>+</div></div>,none,500,test,,,,,,,,,,,,302,32,850,0,stim,poldrack-single-stim,243,341465,0.0-6.1-38.1,go_nogo_deval,447,,<img class = center src='/static/experiments/go_nogo_deval/images/blue_circle.png'></img>,32,850,test,blue_circle,go1,32,12,1,,,,,,,-1,-1,1400,0,ITI,poldrack-single-stim,244,342867,0.0-6.1-39.1,go_nogo_deval,447,,<div></div>,32,1400,test,,,,,,,,,,,,-1,-1,500,0,fixation,poldrack-single-stim,245,343369,0.0-6.1-40.1,go_nogo_deval,447,,<div class = centerbox><div class = fixation>+</div></div>,none,500,test,,,,,,,,,,,,326,32,850,0,stim,poldrack-single-stim,246,344220,0.0-6.1-41.1,go_nogo_deval,447,,<img class = center src='/static/experiments/go_nogo_deval/images/blue_circle.png'></img>,32,850,test,blue_circle,go1,32,13,1,,,,,,,-1,-1,1400,0,ITI,poldrack-single-stim,247,345623,0.0-6.1-42.1,go_nogo_deval,447,,<div></div>,32,1400,test,,,,,,,,,,,,-1,-1,500,0,fixation,poldrack-single-stim,248,346124,0.0-6.1-43.1,go_nogo_deval,447,,<div class = centerbox><div class = fixation>+</div></div>,none,500,test,,,,,,,,,,,,327,32,850,0,stim,poldrack-single-stim,249,346975,0.0-6.1-44.1,go_nogo_deval,447,,<img class = center src='/static/experiments/go_nogo_deval/images/red_triangle.png'></img>,32,850,test,red_triangle,go2,32,14,1,,,,,,,-1,-1,1400,0,ITI,poldrack-single-stim,250,348377,0.0-6.1-45.1,go_nogo_deval,447,,<div></div>,32,1400,test,,,,,,,,,,,,-1,-1,500,0,fixation,poldrack-single-stim,251,348878,0.0-6.1-46.1,go_nogo_deval,447,,<div class = centerbox><div class = fixation>+</div></div>,none,500,test,,,,,,,,,,,,-1,-1,850,0,stim,poldrack-single-stim,252,349730,0.0-6.1-47.1,go_nogo_deval,447,,<img class = center src='/static/experiments/go_nogo_deval/images/green_rhombus.png'></img>,32,850,test,green_rhombus,nogo1,-1,15,1,,,,,,,-1,-1,1400,0,ITI,poldrack-single-stim,253,351132,0.0-6.1-48.1,go_nogo_deval,447,,<div></div>,32,1400,test,,,,,,,,,,,,-1,-1,500,0,fixation,poldrack-single-stim,254,351633,0.0-6.1-49.1,go_nogo_deval,447,,<div class = centerbox><div class = fixation>+</div></div>,none,500,test,,,,,,,,,,,,-1,-1,850,0,stim,poldrack-single-stim,255,352485,0.0-6.1-50.1,go_nogo_deval,447,,<img class = center src='/static/experiments/go_nogo_deval/images/green_rhombus.png'></img>,32,850,test,green_rhombus,nogo1,-1,16,1,,,,,,,-1,-1,1400,0,ITI,poldrack-single-stim,256,353887,0.0-6.1-51.1,go_nogo_deval,447,,<div></div>,32,1400,test,,,,,,,,,,,,-1,-1,500,0,fixation,poldrack-single-stim,257,354389,0.0-6.1-52.1,go_nogo_deval,447,,<div class = centerbox><div class = fixation>+</div></div>,none,500,test,,,,,,,,,,,,320,32,850,0,stim,poldrack-single-stim,258,355239,0.0-6.1-53.1,go_nogo_deval,447,,<img class = center src='/static/experiments/go_nogo_deval/images/blue_circle.png'></img>,32,850,test,blue_circle,go1,32,17,1,,,,,,,-1,-1,1400,0,ITI,poldrack-single-stim,259,356641,0.0-6.1-54.1,go_nogo_deval,447,,<div></div>,32,1400,test,,,,,,,,,,,,-1,-1,500,0,fixation,poldrack-single-stim,260,357143,0.0-6.1-55.1,go_nogo_deval,447,,<div class = centerbox><div class = fixation>+</div></div>,none,500,test,,,,,,,,,,,,-1,-1,850,0,stim,poldrack-single-stim,261,357995,0.0-6.1-56.1,go_nogo_deval,447,,<img class = center src='/static/experiments/go_nogo_deval/images/purple_pentagon.png'></img>,32,850,test,purple_pentagon,nogo2,-1,18,1,,,,,,,-1,-1,1400,0,ITI,poldrack-single-stim,262,359395,0.0-6.1-57.1,go_nogo_deval,447,,<div></div>,32,1400,test,,,,,,,,,,,,-1,-1,500,0,fixation,poldrack-single-stim,263,359897,0.0-6.1-58.1,go_nogo_deval,447,,<div class = centerbox><div class = fixation>+</div></div>,none,500,test,,,,,,,,,,,,-1,-1,850,0,stim,poldrack-single-stim,264,360749,0.0-6.1-59.1,go_nogo_deval,447,,<img class = center src='/static/experiments/go_nogo_deval/images/green_rhombus.png'></img>,32,850,test,green_rhombus,nogo1,-1,19,1,,,,,,,-1,-1,1400,0,ITI,poldrack-single-stim,265,362151,0.0-6.1-60.1,go_nogo_deval,447,,<div></div>,32,1400,test,,,,,,,,,,,,-1,-1,500,0,fixation,poldrack-single-stim,266,362652,0.0-6.1-61.1,go_nogo_deval,447,,<div class = centerbox><div class = fixation>+</div></div>,none,500,test,,,,,,,,,,,,314,32,850,0,stim,poldrack-single-stim,267,363503,0.0-6.1-62.1,go_nogo_deval,447,,<img class = center src='/static/experiments/go_nogo_deval/images/blue_circle.png'></img>,32,850,test,blue_circle,go1,32,20,1,,,,,,,-1,-1,1400,0,ITI,poldrack-single-stim,268,364904,0.0-6.1-63.1,go_nogo_deval,447,,<div></div>,32,1400,test,,,,,,,,,,,,-1,-1,500,0,fixation,poldrack-single-stim,269,365406,0.0-6.1-64.1,go_nogo_deval,447,,<div class = centerbox><div class = fixation>+</div></div>,none,500,test,,,,,,,,,,,,-1,-1,850,0,stim,poldrack-single-stim,270,366257,0.0-6.1-65.1,go_nogo_deval,447,,<img class = center src='/static/experiments/go_nogo_deval/images/green_rhombus.png'></img>,32,850,test,green_rhombus,nogo1,-1,21,1,,,,,,,-1,-1,1400,0,ITI,poldrack-single-stim,271,367658,0.0-6.1-66.1,go_nogo_deval,447,,<div></div>,32,1400,test,,,,,,,,,,,,-1,-1,500,0,fixation,poldrack-single-stim,272,368159,0.0-6.1-67.1,go_nogo_deval,447,,<div class = centerbox><div class = fixation>+</div></div>,none,500,test,,,,,,,,,,,,320,32,850,0,stim,poldrack-single-stim,273,369011,0.0-6.1-68.1,go_nogo_deval,447,,<img class = center src='/static/experiments/go_nogo_deval/images/red_triangle.png'></img>,32,850,test,red_triangle,go2,32,22,1,,,,,,,-1,-1,1400,0,ITI,poldrack-single-stim,274,370412,0.0-6.1-69.1,go_nogo_deval,447,,<div></div>,32,1400,test,,,,,,,,,,,,-1,-1,500,0,fixation,poldrack-single-stim,275,370914,0.0-6.1-70.1,go_nogo_deval,447,,<div class = centerbox><div class = fixation>+</div></div>,none,500,test,,,,,,,,,,,,343,32,850,0,stim,poldrack-single-stim,276,371767,0.0-6.1-71.1,go_nogo_deval,447,,<img class = center src='/static/experiments/go_nogo_deval/images/red_triangle.png'></img>,32,850,test,red_triangle,go2,32,23,1,,,,,,,-1,-1,1400,0,ITI,poldrack-single-stim,277,373168,0.0-6.1-72.1,go_nogo_deval,447,,<div></div>,32,1400,test,,,,,,,,,,,,-1,-1,500,0,fixation,poldrack-single-stim,278,373670,0.0-6.1-73.1,go_nogo_deval,447,,<div class = centerbox><div class = fixation>+</div></div>,none,500,test,,,,,,,,,,,,298,32,850,0,stim,poldrack-single-stim,279,374521,0.0-6.1-74.1,go_nogo_deval,447,,<img class = center src='/static/experiments/go_nogo_deval/images/red_triangle.png'></img>,32,850,test,red_triangle,go2,32,24,1,,,,,,,-1,-1,1400,0,ITI,poldrack-single-stim,280,375922,0.0-6.1-75.1,go_nogo_deval,447,,<div></div>,32,1400,test,,,,,,,,,,,,-1,-1,500,0,fixation,poldrack-single-stim,281,376423,0.0-6.1-76.1,go_nogo_deval,447,,<div class = centerbox><div class = fixation>+</div></div>,none,500,test,,,,,,,,,,,,458,32,850,0,stim,poldrack-single-stim,282,377275,0.0-6.1-77.1,go_nogo_deval,447,,<img class = center src='/static/experiments/go_nogo_deval/images/blue_circle.png'></img>,32,850,test,blue_circle,go1,32,25,1,,,,,,,-1,-1,1400,0,ITI,poldrack-single-stim,283,378677,0.0-6.1-78.1,go_nogo_deval,447,,<div></div>,32,1400,test,,,,,,,,,,,,-1,-1,500,0,fixation,poldrack-single-stim,284,379177,0.0-6.1-79.1,go_nogo_deval,447,,<div class = centerbox><div class = fixation>+</div></div>,none,500,test,,,,,,,,,,,,-1,-1,850,0,stim,poldrack-single-stim,285,380028,0.0-6.1-80.1,go_nogo_deval,447,,<img class = center src='/static/experiments/go_nogo_deval/images/purple_pentagon.png'></img>,32,850,test,purple_pentagon,nogo2,-1,26,1,,,,,,,-1,-1,1400,0,ITI,poldrack-single-stim,286,381429,0.0-6.1-81.1,go_nogo_deval,447,,<div></div>,32,1400,test,,,,,,,,,,,,-1,-1,500,0,fixation,poldrack-single-stim,287,381931,0.0-6.1-82.1,go_nogo_deval,447,,<div class = centerbox><div class = fixation>+</div></div>,none,500,test,,,,,,,,,,,,375,32,850,0,stim,poldrack-single-stim,288,382782,0.0-6.1-83.1,go_nogo_deval,447,,<img class = center src='/static/experiments/go_nogo_deval/images/blue_circle.png'></img>,32,850,test,blue_circle,go1,32,27,1,,,,,,,-1,-1,1400,0,ITI,poldrack-single-stim,289,384182,0.0-6.1-84.1,go_nogo_deval,447,,<div></div>,32,1400,test,,,,,,,,,,,,-1,-1,500,0,fixation,poldrack-single-stim,290,384683,0.0-6.1-85.1,go_nogo_deval,447,,<div class = centerbox><div class = fixation>+</div></div>,none,500,test,,,,,,,,,,,,422,32,850,0,stim,poldrack-single-stim,291,385535,0.0-6.1-86.1,go_nogo_deval,447,,<img class = center src='/static/experiments/go_nogo_deval/images/blue_circle.png'></img>,32,850,test,blue_circle,go1,32,28,1,,,,,,,-1,-1,1400,0,ITI,poldrack-single-stim,292,386936,0.0-6.1-87.1,go_nogo_deval,447,,<div></div>,32,1400,test,,,,,,,,,,,,-1,-1,500,0,fixation,poldrack-single-stim,293,387437,0.0-6.1-88.1,go_nogo_deval,447,,<div class = centerbox><div class = fixation>+</div></div>,none,500,test,,,,,,,,,,,,324,32,850,0,stim,poldrack-single-stim,294,388288,0.0-6.1-89.1,go_nogo_deval,447,,<img class = center src='/static/experiments/go_nogo_deval/images/red_triangle.png'></img>,32,850,test,red_triangle,go2,32,29,1,,,,,,,-1,-1,1400,0,ITI,poldrack-single-stim,295,389689,0.0-6.1-90.1,go_nogo_deval,447,,<div></div>,32,1400,test,,,,,,,,,,,,-1,-1,500,0,fixation,poldrack-single-stim,296,390190,0.0-6.1-91.1,go_nogo_deval,447,,<div class = centerbox><div class = fixation>+</div></div>,none,500,test,,,,,,,,,,,,338,32,850,0,stim,poldrack-single-stim,297,391041,0.0-6.1-92.1,go_nogo_deval,447,,<img class = center src='/static/experiments/go_nogo_deval/images/blue_circle.png'></img>,32,850,test,blue_circle,go1,32,30,1,,,,,,,-1,-1,1400,0,ITI,poldrack-single-stim,298,392443,0.0-6.1-93.1,go_nogo_deval,447,,<div></div>,32,1400,test,,,,,,,,,,,,-1,-1,500,0,fixation,poldrack-single-stim,299,392945,0.0-6.1-94.1,go_nogo_deval,447,,<div class = centerbox><div class = fixation>+</div></div>,none,500,test,,,,,,,,,,,,-1,-1,850,0,stim,poldrack-single-stim,300,393797,0.0-6.1-95.1,go_nogo_deval,447,,<img class = center src='/static/experiments/go_nogo_deval/images/purple_pentagon.png'></img>,32,850,test,purple_pentagon,nogo2,-1,31,1,,,,,,,-1,-1,1400,0,ITI,poldrack-single-stim,301,395198,0.0-6.1-96.1,go_nogo_deval,447,,<div></div>,32,1400,test,,,,,,,,,,,,-1,-1,500,0,fixation,poldrack-single-stim,302,395699,0.0-6.1-97.1,go_nogo_deval,447,,<div class = centerbox><div class = fixation>+</div></div>,none,500,test,,,,,,,,,,,,433,32,850,0,stim,poldrack-single-stim,303,396550,0.0-6.1-98.1,go_nogo_deval,447,,<img class = center src='/static/experiments/go_nogo_deval/images/blue_circle.png'></img>,32,850,test,blue_circle,go1,32,32,1,,,,,,,-1,-1,1400,0,ITI,poldrack-single-stim,304,397952,0.0-6.1-99.1,go_nogo_deval,447,,<div></div>,32,1400,test,,,,,,,,,,,,-1,-1,500,0,fixation,poldrack-single-stim,305,398453,0.0-6.1-100.1,go_nogo_deval,447,,<div class = centerbox><div class = fixation>+</div></div>,none,500,test,,,,,,,,,,,,-1,-1,850,0,stim,poldrack-single-stim,306,399305,0.0-6.1-101.1,go_nogo_deval,447,,<img class = center src='/static/experiments/go_nogo_deval/images/green_rhombus.png'></img>,32,850,test,green_rhombus,nogo1,-1,33,1,,,,,,,-1,-1,1400,0,ITI,poldrack-single-stim,307,400706,0.0-6.1-102.1,go_nogo_deval,447,,<div></div>,32,1400,test,,,,,,,,,,,,-1,-1,500,0,fixation,poldrack-single-stim,308,401208,0.0-6.1-103.1,go_nogo_deval,447,,<div class = centerbox><div class = fixation>+</div></div>,none,500,test,,,,,,,,,,,,391,32,850,0,stim,poldrack-single-stim,309,402059,0.0-6.1-104.1,go_nogo_deval,447,,<img class = center src='/static/experiments/go_nogo_deval/images/blue_circle.png'></img>,32,850,test,blue_circle,go1,32,34,1,,,,,,,-1,-1,1400,0,ITI,poldrack-single-stim,310,403461,0.0-6.1-105.1,go_nogo_deval,447,,<div></div>,32,1400,test,,,,,,,,,,,,-1,-1,500,0,fixation,poldrack-single-stim,311,403963,0.0-6.1-106.1,go_nogo_deval,447,,<div class = centerbox><div class = fixation>+</div></div>,none,500,test,,,,,,,,,,,,313,32,850,0,stim,poldrack-single-stim,312,404814,0.0-6.1-107.1,go_nogo_deval,447,,<img class = center src='/static/experiments/go_nogo_deval/images/red_triangle.png'></img>,32,850,test,red_triangle,go2,32,35,1,,,,,,,-1,-1,1400,0,ITI,poldrack-single-stim,313,406216,0.0-6.1-108.1,go_nogo_deval,447,,<div></div>,32,1400,test,,,,,,,,,,,,-1,-1,500,0,fixation,poldrack-single-stim,314,406718,0.0-6.1-109.1,go_nogo_deval,447,,<div class = centerbox><div class = fixation>+</div></div>,none,500,test,,,,,,,,,,,,360,32,850,0,stim,poldrack-single-stim,315,407569,0.0-6.1-110.1,go_nogo_deval,447,,<img class = center src='/static/experiments/go_nogo_deval/images/red_triangle.png'></img>,32,850,test,red_triangle,go2,32,36,1,,,,,,,-1,-1,1400,0,ITI,poldrack-single-stim,316,408971,0.0-6.1-111.1,go_nogo_deval,447,,<div></div>,32,1400,test,,,,,,,,,,,,-1,-1,500,0,fixation,poldrack-single-stim,317,409472,0.0-6.1-112.1,go_nogo_deval,447,,<div class = centerbox><div class = fixation>+</div></div>,none,500,test,,,,,,,,,,,,328,32,850,0,stim,poldrack-single-stim,318,410323,0.0-6.1-113.1,go_nogo_deval,447,,<img class = center src='/static/experiments/go_nogo_deval/images/red_triangle.png'></img>,32,850,test,red_triangle,go2,32,37,1,,,,,,,-1,-1,1400,0,ITI,poldrack-single-stim,319,411723,0.0-6.1-114.1,go_nogo_deval,447,,<div></div>,32,1400,test,,,,,,,,,,,,-1,-1,500,0,fixation,poldrack-single-stim,320,412225,0.0-6.1-115.1,go_nogo_deval,447,,<div class = centerbox><div class = fixation>+</div></div>,none,500,test,,,,,,,,,,,,-1,-1,850,0,stim,poldrack-single-stim,321,413076,0.0-6.1-116.1,go_nogo_deval,447,,<img class = center src='/static/experiments/go_nogo_deval/images/green_rhombus.png'></img>,32,850,test,green_rhombus,nogo1,-1,38,1,,,,,,,-1,-1,1400,0,ITI,poldrack-single-stim,322,414478,0.0-6.1-117.1,go_nogo_deval,447,,<div></div>,32,1400,test,,,,,,,,,,,,-1,-1,500,0,fixation,poldrack-single-stim,323,414979,0.0-6.1-118.1,go_nogo_deval,447,,<div class = centerbox><div class = fixation>+</div></div>,none,500,test,,,,,,,,,,,,-1,-1,850,0,stim,poldrack-single-stim,324,415831,0.0-6.1-119.1,go_nogo_deval,447,,<img class = center src='/static/experiments/go_nogo_deval/images/purple_pentagon.png'></img>,32,850,test,purple_pentagon,nogo2,-1,39,1,,,,,,,-1,-1,1400,0,ITI,poldrack-single-stim,325,417232,0.0-6.1-120.1,go_nogo_deval,447,,<div></div>,32,1400,test,,,,,,,,,,,,-1,-1,500,0,fixation,poldrack-single-stim,326,417733,0.0-6.1-121.1,go_nogo_deval,447,,<div class = centerbox><div class = fixation>+</div></div>,none,500,test,,,,,,,,,,,,336,32,850,0,stim,poldrack-single-stim,327,418585,0.0-6.1-122.1,go_nogo_deval,447,,<img class = center src='/static/experiments/go_nogo_deval/images/red_triangle.png'></img>,32,850,test,red_triangle,go2,32,40,1,,,,,,,-1,-1,1400,0,ITI,poldrack-single-stim,328,419986,0.0-6.1-123.1,go_nogo_deval,447,,<div></div>,32,1400,test,,,,,,,,,,,,-1,-1,500,0,fixation,poldrack-single-stim,329,420487,0.0-6.1-124.1,go_nogo_deval,447,,<div class = centerbox><div class = fixation>+</div></div>,none,500,test,,,,,,,,,,,,440,32,850,0,stim,poldrack-single-stim,330,421339,0.0-6.1-125.1,go_nogo_deval,447,,<img class = center src='/static/experiments/go_nogo_deval/images/blue_circle.png'></img>,32,850,test,blue_circle,go1,32,41,1,,,,,,,-1,-1,1400,0,ITI,poldrack-single-stim,331,422741,0.0-6.1-126.1,go_nogo_deval,447,,<div></div>,32,1400,test,,,,,,,,,,,,-1,-1,500,0,fixation,poldrack-single-stim,332,423243,0.0-6.1-127.1,go_nogo_deval,447,,<div class = centerbox><div class = fixation>+</div></div>,none,500,test,,,,,,,,,,,,361,32,850,0,stim,poldrack-single-stim,333,424094,0.0-6.1-128.1,go_nogo_deval,447,,<img class = center src='/static/experiments/go_nogo_deval/images/blue_circle.png'></img>,32,850,test,blue_circle,go1,32,42,1,,,,,,,-1,-1,1400,0,ITI,poldrack-single-stim,334,425496,0.0-6.1-129.1,go_nogo_deval,447,,<div></div>,32,1400,test,,,,,,,,,,,,-1,-1,500,0,fixation,poldrack-single-stim,335,425998,0.0-6.1-130.1,go_nogo_deval,447,,<div class = centerbox><div class = fixation>+</div></div>,none,500,test,,,,,,,,,,,,-1,-1,850,0,stim,poldrack-single-stim,336,426851,0.0-6.1-131.1,go_nogo_deval,447,,<img class = center src='/static/experiments/go_nogo_deval/images/purple_pentagon.png'></img>,32,850,test,purple_pentagon,nogo2,-1,43,1,,,,,,,-1,-1,1400,0,ITI,poldrack-single-stim,337,428252,0.0-6.1-132.1,go_nogo_deval,447,,<div></div>,32,1400,test,,,,,,,,,,,,-1,-1,500,0,fixation,poldrack-single-stim,338,428753,0.0-6.1-133.1,go_nogo_deval,447,,<div class = centerbox><div class = fixation>+</div></div>,none,500,test,,,,,,,,,,,,386,32,850,0,stim,poldrack-single-stim,339,429605,0.0-6.1-134.1,go_nogo_deval,447,,<img class = center src='/static/experiments/go_nogo_deval/images/blue_circle.png'></img>,32,850,test,blue_circle,go1,32,44,1,,,,,,,-1,-1,1400,0,ITI,poldrack-single-stim,340,431007,0.0-6.1-135.1,go_nogo_deval,447,,<div></div>,32,1400,test,,,,,,,,,,,,-1,-1,500,0,fixation,poldrack-single-stim,341,431509,0.0-6.1-136.1,go_nogo_deval,447,,<div class = centerbox><div class = fixation>+</div></div>,none,500,test,,,,,,,,,,,,387,32,850,0,stim,poldrack-single-stim,342,432359,0.0-6.1-137.1,go_nogo_deval,447,,<img class = center src='/static/experiments/go_nogo_deval/images/red_triangle.png'></img>,32,850,test,red_triangle,go2,32,45,1,,,,,,,-1,-1,1400,0,ITI,poldrack-single-stim,343,433761,0.0-6.1-138.1,go_nogo_deval,447,,<div></div>,32,1400,test,,,,,,,,,,,,-1,-1,500,0,fixation,poldrack-single-stim,344,434263,0.0-6.1-139.1,go_nogo_deval,447,,<div class = centerbox><div class = fixation>+</div></div>,none,500,test,,,,,,,,,,,,-1,-1,850,0,stim,poldrack-single-stim,345,435115,0.0-6.1-140.1,go_nogo_deval,447,,<img class = center src='/static/experiments/go_nogo_deval/images/purple_pentagon.png'></img>,32,850,test,purple_pentagon,nogo2,-1,46,1,,,,,,,-1,-1,1400,0,ITI,poldrack-single-stim,346,436517,0.0-6.1-141.1,go_nogo_deval,447,,<div></div>,32,1400,test,,,,,,,,,,,,-1,-1,500,0,fixation,poldrack-single-stim,347,437018,0.0-6.1-142.1,go_nogo_deval,447,,<div class = centerbox><div class = fixation>+</div></div>,none,500,test,,,,,,,,,,,,368,32,850,0,stim,poldrack-single-stim,348,437870,0.0-6.1-143.1,go_nogo_deval,447,,<img class = center src='/static/experiments/go_nogo_deval/images/red_triangle.png'></img>,32,850,test,red_triangle,go2,32,47,1,,,,,,,-1,-1,1400,0,ITI,poldrack-single-stim,349,439271,0.0-6.1-144.1,go_nogo_deval,447,,<div></div>,32,1400,test,,,,,,,,,,,,14424,13,14424,0,practice-no-stop-feedback,poldrack-single-stim,350,453699,0.0-6.2-0.2,go_nogo_deval,447,,<div class = centerbox><p class = block-text><br>Please take this time to read your feedback and to take a short break! Press enter to continue</p><p class = block-text><strong>Average reaction time:  354 ms. Accuracy: 100%</strong></p></div>,13,14424,,,,,,,,,,,,,-1,-1,500,0,fixation,poldrack-single-stim,351,454201,0.0-6.2-1.2,go_nogo_deval,447,,<div class = centerbox><div class = fixation>+</div></div>,none,500,test,,,,,,,,,,,,364,32,850,0,stim,poldrack-single-stim,352,455052,0.0-6.2-2.2,go_nogo_deval,447,,<img class = center src='/static/experiments/go_nogo_deval/images/red_triangle.png'></img>,32,850,test,red_triangle,go2,32,0,2,,,,,,,-1,-1,1400,0,ITI,poldrack-single-stim,353,456455,0.0-6.2-3.2,go_nogo_deval,447,,<div></div>,32,1400,test,,,,,,,,,,,,-1,-1,500,0,fixation,poldrack-single-stim,354,456956,0.0-6.2-4.2,go_nogo_deval,447,,<div class = centerbox><div class = fixation>+</div></div>,none,500,test,,,,,,,,,,,,-1,-1,850,0,stim,poldrack-single-stim,355,457807,0.0-6.2-5.2,go_nogo_deval,447,,<img class = center src='/static/experiments/go_nogo_deval/images/green_rhombus.png'></img>,32,850,test,green_rhombus,nogo1,-1,1,2,,,,,,,-1,-1,1400,0,ITI,poldrack-single-stim,356,459209,0.0-6.2-6.2,go_nogo_deval,447,,<div></div>,32,1400,test,,,,,,,,,,,,-1,-1,500,0,fixation,poldrack-single-stim,357,459711,0.0-6.2-7.2,go_nogo_deval,447,,<div class = centerbox><div class = fixation>+</div></div>,none,500,test,,,,,,,,,,,,366,32,850,0,stim,poldrack-single-stim,358,460563,0.0-6.2-8.2,go_nogo_deval,447,,<img class = center src='/static/experiments/go_nogo_deval/images/blue_circle.png'></img>,32,850,test,blue_circle,go1,32,2,2,,,,,,,-1,-1,1400,0,ITI,poldrack-single-stim,359,461964,0.0-6.2-9.2,go_nogo_deval,447,,<div></div>,32,1400,test,,,,,,,,,,,,-1,-1,500,0,fixation,poldrack-single-stim,360,462466,0.0-6.2-10.2,go_nogo_deval,447,,<div class = centerbox><div class = fixation>+</div></div>,none,500,test,,,,,,,,,,,,333,32,850,0,stim,poldrack-single-stim,361,463316,0.0-6.2-11.2,go_nogo_deval,447,,<img class = center src='/static/experiments/go_nogo_deval/images/red_triangle.png'></img>,32,850,test,red_triangle,go2,32,3,2,,,,,,,-1,-1,1400,0,ITI,poldrack-single-stim,362,464718,0.0-6.2-12.2,go_nogo_deval,447,,<div></div>,32,1400,test,,,,,,,,,,,,-1,-1,500,0,fixation,poldrack-single-stim,363,465220,0.0-6.2-13.2,go_nogo_deval,447,,<div class = centerbox><div class = fixation>+</div></div>,none,500,test,,,,,,,,,,,,404,32,850,0,stim,poldrack-single-stim,364,466072,0.0-6.2-14.2,go_nogo_deval,447,,<img class = center src='/static/experiments/go_nogo_deval/images/blue_circle.png'></img>,32,850,test,blue_circle,go1,32,4,2,,,,,,,-1,-1,1400,0,ITI,poldrack-single-stim,365,467474,0.0-6.2-15.2,go_nogo_deval,447,,<div></div>,32,1400,test,,,,,,,,,,,,-1,-1,500,0,fixation,poldrack-single-stim,366,467975,0.0-6.2-16.2,go_nogo_deval,447,,<div class = centerbox><div class = fixation>+</div></div>,none,500,test,,,,,,,,,,,,-1,-1,850,0,stim,poldrack-single-stim,367,468827,0.0-6.2-17.2,go_nogo_deval,447,,<img class = center src='/static/experiments/go_nogo_deval/images/purple_pentagon.png'></img>,32,850,test,purple_pentagon,nogo2,-1,5,2,,,,,,,-1,-1,1400,0,ITI,poldrack-single-stim,368,470229,0.0-6.2-18.2,go_nogo_deval,447,,<div></div>,32,1400,test,,,,,,,,,,,,-1,-1,500,0,fixation,poldrack-single-stim,369,470731,0.0-6.2-19.2,go_nogo_deval,447,,<div class = centerbox><div class = fixation>+</div></div>,none,500,test,,,,,,,,,,,,349,32,850,0,stim,poldrack-single-stim,370,471582,0.0-6.2-20.2,go_nogo_deval,447,,<img class = center src='/static/experiments/go_nogo_deval/images/blue_circle.png'></img>,32,850,test,blue_circle,go1,32,6,2,,,,,,,-1,-1,1400,0,ITI,poldrack-single-stim,371,472984,0.0-6.2-21.2,go_nogo_deval,447,,<div></div>,32,1400,test,,,,,,,,,,,,-1,-1,500,0,fixation,poldrack-single-stim,372,473486,0.0-6.2-22.2,go_nogo_deval,447,,<div class = centerbox><div class = fixation>+</div></div>,none,500,test,,,,,,,,,,,,-1,-1,850,0,stim,poldrack-single-stim,373,474338,0.0-6.2-23.2,go_nogo_deval,447,,<img class = center src='/static/experiments/go_nogo_deval/images/purple_pentagon.png'></img>,32,850,test,purple_pentagon,nogo2,-1,7,2,,,,,,,-1,-1,1400,0,ITI,poldrack-single-stim,374,475738,0.0-6.2-24.2,go_nogo_deval,447,,<div></div>,32,1400,test,,,,,,,,,,,,-1,-1,500,0,fixation,poldrack-single-stim,375,476240,0.0-6.2-25.2,go_nogo_deval,447,,<div class = centerbox><div class = fixation>+</div></div>,none,500,test,,,,,,,,,,,,408,32,850,0,stim,poldrack-single-stim,376,477092,0.0-6.2-26.2,go_nogo_deval,447,,<img class = center src='/static/experiments/go_nogo_deval/images/blue_circle.png'></img>,32,850,test,blue_circle,go1,32,8,2,,,,,,,-1,-1,1400,0,ITI,poldrack-single-stim,377,478494,0.0-6.2-27.2,go_nogo_deval,447,,<div></div>,32,1400,test,,,,,,,,,,,,-1,-1,500,0,fixation,poldrack-single-stim,378,478995,0.0-6.2-28.2,go_nogo_deval,447,,<div class = centerbox><div class = fixation>+</div></div>,none,500,test,,,,,,,,,,,,320,32,850,0,stim,poldrack-single-stim,379,479847,0.0-6.2-29.2,go_nogo_deval,447,,<img class = center src='/static/experiments/go_nogo_deval/images/red_triangle.png'></img>,32,850,test,red_triangle,go2,32,9,2,,,,,,,-1,-1,1400,0,ITI,poldrack-single-stim,380,481248,0.0-6.2-30.2,go_nogo_deval,447,,<div></div>,32,1400,test,,,,,,,,,,,,-1,-1,500,0,fixation,poldrack-single-stim,381,481750,0.0-6.2-31.2,go_nogo_deval,447,,<div class = centerbox><div class = fixation>+</div></div>,none,500,test,,,,,,,,,,,,286,32,850,0,stim,poldrack-single-stim,382,482602,0.0-6.2-32.2,go_nogo_deval,447,,<img class = center src='/static/experiments/go_nogo_deval/images/red_triangle.png'></img>,32,850,test,red_triangle,go2,32,10,2,,,,,,,-1,-1,1400,0,ITI,poldrack-single-stim,383,484004,0.0-6.2-33.2,go_nogo_deval,447,,<div></div>,32,1400,test,,,,,,,,,,,,-1,-1,500,0,fixation,poldrack-single-stim,384,484506,0.0-6.2-34.2,go_nogo_deval,447,,<div class = centerbox><div class = fixation>+</div></div>,none,500,test,,,,,,,,,,,,321,32,850,0,stim,poldrack-single-stim,385,485357,0.0-6.2-35.2,go_nogo_deval,447,,<img class = center src='/static/experiments/go_nogo_deval/images/blue_circle.png'></img>,32,850,test,blue_circle,go1,32,11,2,,,,,,,-1,-1,1400,0,ITI,poldrack-single-stim,386,486758,0.0-6.2-36.2,go_nogo_deval,447,,<div></div>,32,1400,test,,,,,,,,,,,,-1,-1,500,0,fixation,poldrack-single-stim,387,487260,0.0-6.2-37.2,go_nogo_deval,447,,<div class = centerbox><div class = fixation>+</div></div>,none,500,test,,,,,,,,,,,,-1,-1,850,0,stim,poldrack-single-stim,388,488112,0.0-6.2-38.2,go_nogo_deval,447,,<img class = center src='/static/experiments/go_nogo_deval/images/green_rhombus.png'></img>,32,850,test,green_rhombus,nogo1,-1,12,2,,,,,,,-1,-1,1400,0,ITI,poldrack-single-stim,389,489513,0.0-6.2-39.2,go_nogo_deval,447,,<div></div>,32,1400,test,,,,,,,,,,,,-1,-1,500,0,fixation,poldrack-single-stim,390,490015,0.0-6.2-40.2,go_nogo_deval,447,,<div class = centerbox><div class = fixation>+</div></div>,none,500,test,,,,,,,,,,,,-1,-1,850,0,stim,poldrack-single-stim,391,490867,0.0-6.2-41.2,go_nogo_deval,447,,<img class = center src='/static/experiments/go_nogo_deval/images/green_rhombus.png'></img>,32,850,test,green_rhombus,nogo1,-1,13,2,,,,,,,-1,-1,1400,0,ITI,poldrack-single-stim,392,492268,0.0-6.2-42.2,go_nogo_deval,447,,<div></div>,32,1400,test,,,,,,,,,,,,-1,-1,500,0,fixation,poldrack-single-stim,393,492770,0.0-6.2-43.2,go_nogo_deval,447,,<div class = centerbox><div class = fixation>+</div></div>,none,500,test,,,,,,,,,,,,348,32,850,0,stim,poldrack-single-stim,394,493623,0.0-6.2-44.2,go_nogo_deval,447,,<img class = center src='/static/experiments/go_nogo_deval/images/blue_circle.png'></img>,32,850,test,blue_circle,go1,32,14,2,,,,,,,-1,-1,1400,0,ITI,poldrack-single-stim,395,495024,0.0-6.2-45.2,go_nogo_deval,447,,<div></div>,32,1400,test,,,,,,,,,,,,-1,-1,500,0,fixation,poldrack-single-stim,396,495526,0.0-6.2-46.2,go_nogo_deval,447,,<div class = centerbox><div class = fixation>+</div></div>,none,500,test,,,,,,,,,,,,-1,-1,850,0,stim,poldrack-single-stim,397,496377,0.0-6.2-47.2,go_nogo_deval,447,,<img class = center src='/static/experiments/go_nogo_deval/images/purple_pentagon.png'></img>,32,850,test,purple_pentagon,nogo2,-1,15,2,,,,,,,-1,-1,1400,0,ITI,poldrack-single-stim,398,497779,0.0-6.2-48.2,go_nogo_deval,447,,<div></div>,32,1400,test,,,,,,,,,,,,-1,-1,500,0,fixation,poldrack-single-stim,399,498280,0.0-6.2-49.2,go_nogo_deval,447,,<div class = centerbox><div class = fixation>+</div></div>,none,500,test,,,,,,,,,,,,350,32,850,0,stim,poldrack-single-stim,400,499131,0.0-6.2-50.2,go_nogo_deval,447,,<img class = center src='/static/experiments/go_nogo_deval/images/red_triangle.png'></img>,32,850,test,red_triangle,go2,32,16,2,,,,,,,-1,-1,1400,0,ITI,poldrack-single-stim,401,500533,0.0-6.2-51.2,go_nogo_deval,447,,<div></div>,32,1400,test,,,,,,,,,,,,-1,-1,500,0,fixation,poldrack-single-stim,402,501035,0.0-6.2-52.2,go_nogo_deval,447,,<div class = centerbox><div class = fixation>+</div></div>,none,500,test,,,,,,,,,,,,-1,-1,850,0,stim,poldrack-single-stim,403,501887,0.0-6.2-53.2,go_nogo_deval,447,,<img class = center src='/static/experiments/go_nogo_deval/images/purple_pentagon.png'></img>,32,850,test,purple_pentagon,nogo2,-1,17,2,,,,,,,-1,-1,1400,0,ITI,poldrack-single-stim,404,503288,0.0-6.2-54.2,go_nogo_deval,447,,<div></div>,32,1400,test,,,,,,,,,,,,-1,-1,500,0,fixation,poldrack-single-stim,405,503789,0.0-6.2-55.2,go_nogo_deval,447,,<div class = centerbox><div class = fixation>+</div></div>,none,500,test,,,,,,,,,,,,421,32,850,0,stim,poldrack-single-stim,406,504641,0.0-6.2-56.2,go_nogo_deval,447,,<img class = center src='/static/experiments/go_nogo_deval/images/red_triangle.png'></img>,32,850,test,red_triangle,go2,32,18,2,,,,,,,-1,-1,1400,0,ITI,poldrack-single-stim,407,506043,0.0-6.2-57.2,go_nogo_deval,447,,<div></div>,32,1400,test,,,,,,,,,,,,-1,-1,500,0,fixation,poldrack-single-stim,408,506544,0.0-6.2-58.2,go_nogo_deval,447,,<div class = centerbox><div class = fixation>+</div></div>,none,500,test,,,,,,,,,,,,311,32,850,0,stim,poldrack-single-stim,409,507395,0.0-6.2-59.2,go_nogo_deval,447,,<img class = center src='/static/experiments/go_nogo_deval/images/blue_circle.png'></img>,32,850,test,blue_circle,go1,32,19,2,,,,,,,-1,-1,1400,0,ITI,poldrack-single-stim,410,508796,0.0-6.2-60.2,go_nogo_deval,447,,<div></div>,32,1400,test,,,,,,,,,,,,-1,-1,500,0,fixation,poldrack-single-stim,411,509298,0.0-6.2-61.2,go_nogo_deval,447,,<div class = centerbox><div class = fixation>+</div></div>,none,500,test,,,,,,,,,,,,-1,-1,850,0,stim,poldrack-single-stim,412,510149,0.0-6.2-62.2,go_nogo_deval,447,,<img class = center src='/static/experiments/go_nogo_deval/images/green_rhombus.png'></img>,32,850,test,green_rhombus,nogo1,-1,20,2,,,,,,,-1,-1,1400,0,ITI,poldrack-single-stim,413,511551,0.0-6.2-63.2,go_nogo_deval,447,,<div></div>,32,1400,test,,,,,,,,,,,,-1,-1,500,0,fixation,poldrack-single-stim,414,512053,0.0-6.2-64.2,go_nogo_deval,447,,<div class = centerbox><div class = fixation>+</div></div>,none,500,test,,,,,,,,,,,,337,32,850,0,stim,poldrack-single-stim,415,512904,0.0-6.2-65.2,go_nogo_deval,447,,<img class = center src='/static/experiments/go_nogo_deval/images/red_triangle.png'></img>,32,850,test,red_triangle,go2,32,21,2,,,,,,,-1,-1,1400,0,ITI,poldrack-single-stim,416,514306,0.0-6.2-66.2,go_nogo_deval,447,,<div></div>,32,1400,test,,,,,,,,,,,,-1,-1,500,0,fixation,poldrack-single-stim,417,514808,0.0-6.2-67.2,go_nogo_deval,447,,<div class = centerbox><div class = fixation>+</div></div>,none,500,test,,,,,,,,,,,,406,32,850,0,stim,poldrack-single-stim,418,515660,0.0-6.2-68.2,go_nogo_deval,447,,<img class = center src='/static/experiments/go_nogo_deval/images/blue_circle.png'></img>,32,850,test,blue_circle,go1,32,22,2,,,,,,,-1,-1,1400,0,ITI,poldrack-single-stim,419,517062,0.0-6.2-69.2,go_nogo_deval,447,,<div></div>,32,1400,test,,,,,,,,,,,,-1,-1,500,0,fixation,poldrack-single-stim,420,517563,0.0-6.2-70.2,go_nogo_deval,447,,<div class = centerbox><div class = fixation>+</div></div>,none,500,test,,,,,,,,,,,,396,32,850,0,stim,poldrack-single-stim,421,518414,0.0-6.2-71.2,go_nogo_deval,447,,<img class = center src='/static/experiments/go_nogo_deval/images/red_triangle.png'></img>,32,850,test,red_triangle,go2,32,23,2,,,,,,,-1,-1,1400,0,ITI,poldrack-single-stim,422,519816,0.0-6.2-72.2,go_nogo_deval,447,,<div></div>,32,1400,test,,,,,,,,,,,,-1,-1,500,0,fixation,poldrack-single-stim,423,520317,0.0-6.2-73.2,go_nogo_deval,447,,<div class = centerbox><div class = fixation>+</div></div>,none,500,test,,,,,,,,,,,,-1,-1,850,0,stim,poldrack-single-stim,424,521169,0.0-6.2-74.2,go_nogo_deval,447,,<img class = center src='/static/experiments/go_nogo_deval/images/green_rhombus.png'></img>,32,850,test,green_rhombus,nogo1,-1,24,2,,,,,,,-1,-1,1400,0,ITI,poldrack-single-stim,425,522571,0.0-6.2-75.2,go_nogo_deval,447,,<div></div>,32,1400,test,,,,,,,,,,,,-1,-1,500,0,fixation,poldrack-single-stim,426,523072,0.0-6.2-76.2,go_nogo_deval,447,,<div class = centerbox><div class = fixation>+</div></div>,none,500,test,,,,,,,,,,,,409,32,850,0,stim,poldrack-single-stim,427,523923,0.0-6.2-77.2,go_nogo_deval,447,,<img class = center src='/static/experiments/go_nogo_deval/images/red_triangle.png'></img>,32,850,test,red_triangle,go2,32,25,2,,,,,,,-1,-1,1400,0,ITI,poldrack-single-stim,428,525325,0.0-6.2-78.2,go_nogo_deval,447,,<div></div>,32,1400,test,,,,,,,,,,,,-1,-1,500,0,fixation,poldrack-single-stim,429,525825,0.0-6.2-79.2,go_nogo_deval,447,,<div class = centerbox><div class = fixation>+</div></div>,none,500,test,,,,,,,,,,,,413,32,850,0,stim,poldrack-single-stim,430,526678,0.0-6.2-80.2,go_nogo_deval,447,,<img class = center src='/static/experiments/go_nogo_deval/images/blue_circle.png'></img>,32,850,test,blue_circle,go1,32,26,2,,,,,,,-1,-1,1400,0,ITI,poldrack-single-stim,431,528079,0.0-6.2-81.2,go_nogo_deval,447,,<div></div>,32,1400,test,,,,,,,,,,,,-1,-1,500,0,fixation,poldrack-single-stim,432,528581,0.0-6.2-82.2,go_nogo_deval,447,,<div class = centerbox><div class = fixation>+</div></div>,none,500,test,,,,,,,,,,,,358,32,850,0,stim,poldrack-single-stim,433,529432,0.0-6.2-83.2,go_nogo_deval,447,,<img class = center src='/static/experiments/go_nogo_deval/images/blue_circle.png'></img>,32,850,test,blue_circle,go1,32,27,2,,,,,,,-1,-1,1400,0,ITI,poldrack-single-stim,434,530834,0.0-6.2-84.2,go_nogo_deval,447,,<div></div>,32,1400,test,,,,,,,,,,,,-1,-1,500,0,fixation,poldrack-single-stim,435,531336,0.0-6.2-85.2,go_nogo_deval,447,,<div class = centerbox><div class = fixation>+</div></div>,none,500,test,,,,,,,,,,,,359,32,850,0,stim,poldrack-single-stim,436,532187,0.0-6.2-86.2,go_nogo_deval,447,,<img class = center src='/static/experiments/go_nogo_deval/images/blue_circle.png'></img>,32,850,test,blue_circle,go1,32,28,2,,,,,,,-1,-1,1400,0,ITI,poldrack-single-stim,437,533589,0.0-6.2-87.2,go_nogo_deval,447,,<div></div>,32,1400,test,,,,,,,,,,,,-1,-1,500,0,fixation,poldrack-single-stim,438,534090,0.0-6.2-88.2,go_nogo_deval,447,,<div class = centerbox><div class = fixation>+</div></div>,none,500,test,,,,,,,,,,,,-1,-1,850,0,stim,poldrack-single-stim,439,534942,0.0-6.2-89.2,go_nogo_deval,447,,<img class = center src='/static/experiments/go_nogo_deval/images/purple_pentagon.png'></img>,32,850,test,purple_pentagon,nogo2,-1,29,2,,,,,,,-1,-1,1400,0,ITI,poldrack-single-stim,440,536344,0.0-6.2-90.2,go_nogo_deval,447,,<div></div>,32,1400,test,,,,,,,,,,,,-1,-1,500,0,fixation,poldrack-single-stim,441,536845,0.0-6.2-91.2,go_nogo_deval,447,,<div class = centerbox><div class = fixation>+</div></div>,none,500,test,,,,,,,,,,,,442,32,850,0,stim,poldrack-single-stim,442,537697,0.0-6.2-92.2,go_nogo_deval,447,,<img class = center src='/static/experiments/go_nogo_deval/images/blue_circle.png'></img>,32,850,test,blue_circle,go1,32,30,2,,,,,,,-1,-1,1400,0,ITI,poldrack-single-stim,443,539098,0.0-6.2-93.2,go_nogo_deval,447,,<div></div>,32,1400,test,,,,,,,,,,,,-1,-1,500,0,fixation,poldrack-single-stim,444,539600,0.0-6.2-94.2,go_nogo_deval,447,,<div class = centerbox><div class = fixation>+</div></div>,none,500,test,,,,,,,,,,,,-1,-1,850,0,stim,poldrack-single-stim,445,540452,0.0-6.2-95.2,go_nogo_deval,447,,<img class = center src='/static/experiments/go_nogo_deval/images/purple_pentagon.png'></img>,32,850,test,purple_pentagon,nogo2,-1,31,2,,,,,,,-1,-1,1400,0,ITI,poldrack-single-stim,446,541854,0.0-6.2-96.2,go_nogo_deval,447,,<div></div>,32,1400,test,,,,,,,,,,,,-1,-1,500,0,fixation,poldrack-single-stim,447,542355,0.0-6.2-97.2,go_nogo_deval,447,,<div class = centerbox><div class = fixation>+</div></div>,none,500,test,,,,,,,,,,,,-1,-1,850,0,stim,poldrack-single-stim,448,543207,0.0-6.2-98.2,go_nogo_deval,447,,<img class = center src='/static/experiments/go_nogo_deval/images/green_rhombus.png'></img>,32,850,test,green_rhombus,nogo1,-1,32,2,,,,,,,-1,-1,1400,0,ITI,poldrack-single-stim,449,544608,0.0-6.2-99.2,go_nogo_deval,447,,<div></div>,32,1400,test,,,,,,,,,,,,-1,-1,500,0,fixation,poldrack-single-stim,450,545110,0.0-6.2-100.2,go_nogo_deval,447,,<div class = centerbox><div class = fixation>+</div></div>,none,500,test,,,,,,,,,,,,332,32,850,0,stim,poldrack-single-stim,451,545962,0.0-6.2-101.2,go_nogo_deval,447,,<img class = center src='/static/experiments/go_nogo_deval/images/red_triangle.png'></img>,32,850,test,red_triangle,go2,32,33,2,,,,,,,-1,-1,1400,0,ITI,poldrack-single-stim,452,547363,0.0-6.2-102.2,go_nogo_deval,447,,<div></div>,32,1400,test,,,,,,,,,,,,-1,-1,500,0,fixation,poldrack-single-stim,453,547865,0.0-6.2-103.2,go_nogo_deval,447,,<div class = centerbox><div class = fixation>+</div></div>,none,500,test,,,,,,,,,,,,-1,-1,850,0,stim,poldrack-single-stim,454,548715,0.0-6.2-104.2,go_nogo_deval,447,,<img class = center src='/static/experiments/go_nogo_deval/images/green_rhombus.png'></img>,32,850,test,green_rhombus,nogo1,-1,34,2,,,,,,,-1,-1,1400,0,ITI,poldrack-single-stim,455,550117,0.0-6.2-105.2,go_nogo_deval,447,,<div></div>,32,1400,test,,,,,,,,,,,,-1,-1,500,0,fixation,poldrack-single-stim,456,550619,0.0-6.2-106.2,go_nogo_deval,447,,<div class = centerbox><div class = fixation>+</div></div>,none,500,test,,,,,,,,,,,,337,32,850,0,stim,poldrack-single-stim,457,551471,0.0-6.2-107.2,go_nogo_deval,447,,<img class = center src='/static/experiments/go_nogo_deval/images/red_triangle.png'></img>,32,850,test,red_triangle,go2,32,35,2,,,,,,,-1,-1,1400,0,ITI,poldrack-single-stim,458,552871,0.0-6.2-108.2,go_nogo_deval,447,,<div></div>,32,1400,test,,,,,,,,,,,,-1,-1,500,0,fixation,poldrack-single-stim,459,553373,0.0-6.2-109.2,go_nogo_deval,447,,<div class = centerbox><div class = fixation>+</div></div>,none,500,test,,,,,,,,,,,,405,32,850,0,stim,poldrack-single-stim,460,554224,0.0-6.2-110.2,go_nogo_deval,447,,<img class = center src='/static/experiments/go_nogo_deval/images/red_triangle.png'></img>,32,850,test,red_triangle,go2,32,36,2,,,,,,,-1,-1,1400,0,ITI,poldrack-single-stim,461,555626,0.0-6.2-111.2,go_nogo_deval,447,,<div></div>,32,1400,test,,,,,,,,,,,,-1,-1,500,0,fixation,poldrack-single-stim,462,556128,0.0-6.2-112.2,go_nogo_deval,447,,<div class = centerbox><div class = fixation>+</div></div>,none,500,test,,,,,,,,,,,,328,32,850,0,stim,poldrack-single-stim,463,556980,0.0-6.2-113.2,go_nogo_deval,447,,<img class = center src='/static/experiments/go_nogo_deval/images/blue_circle.png'></img>,32,850,test,blue_circle,go1,32,37,2,,,,,,,-1,-1,1400,0,ITI,poldrack-single-stim,464,558380,0.0-6.2-114.2,go_nogo_deval,447,,<div></div>,32,1400,test,,,,,,,,,,,,-1,-1,500,0,fixation,poldrack-single-stim,465,558882,0.0-6.2-115.2,go_nogo_deval,447,,<div class = centerbox><div class = fixation>+</div></div>,none,500,test,,,,,,,,,,,,320,32,850,0,stim,poldrack-single-stim,466,559734,0.0-6.2-116.2,go_nogo_deval,447,,<img class = center src='/static/experiments/go_nogo_deval/images/blue_circle.png'></img>,32,850,test,blue_circle,go1,32,38,2,,,,,,,-1,-1,1400,0,ITI,poldrack-single-stim,467,561136,0.0-6.2-117.2,go_nogo_deval,447,,<div></div>,32,1400,test,,,,,,,,,,,,-1,-1,500,0,fixation,poldrack-single-stim,468,561637,0.0-6.2-118.2,go_nogo_deval,447,,<div class = centerbox><div class = fixation>+</div></div>,none,500,test,,,,,,,,,,,,-1,-1,850,0,stim,poldrack-single-stim,469,562489,0.0-6.2-119.2,go_nogo_deval,447,,<img class = center src='/static/experiments/go_nogo_deval/images/purple_pentagon.png'></img>,32,850,test,purple_pentagon,nogo2,-1,39,2,,,,,,,-1,-1,1400,0,ITI,poldrack-single-stim,470,563890,0.0-6.2-120.2,go_nogo_deval,447,,<div></div>,32,1400,test,,,,,,,,,,,,-1,-1,500,0,fixation,poldrack-single-stim,471,564393,0.0-6.2-121.2,go_nogo_deval,447,,<div class = centerbox><div class = fixation>+</div></div>,none,500,test,,,,,,,,,,,,366,32,850,0,stim,poldrack-single-stim,472,565245,0.0-6.2-122.2,go_nogo_deval,447,,<img class = center src='/static/experiments/go_nogo_deval/images/red_triangle.png'></img>,32,850,test,red_triangle,go2,32,40,2,,,,,,,-1,-1,1400,0,ITI,poldrack-single-stim,473,566646,0.0-6.2-123.2,go_nogo_deval,447,,<div></div>,32,1400,test,,,,,,,,,,,,-1,-1,500,0,fixation,poldrack-single-stim,474,567148,0.0-6.2-124.2,go_nogo_deval,447,,<div class = centerbox><div class = fixation>+</div></div>,none,500,test,,,,,,,,,,,,345,32,850,0,stim,poldrack-single-stim,475,567999,0.0-6.2-125.2,go_nogo_deval,447,,<img class = center src='/static/experiments/go_nogo_deval/images/red_triangle.png'></img>,32,850,test,red_triangle,go2,32,41,2,,,,,,,-1,-1,1400,0,ITI,poldrack-single-stim,476,569400,0.0-6.2-126.2,go_nogo_deval,447,,<div></div>,32,1400,test,,,,,,,,,,,,-1,-1,500,0,fixation,poldrack-single-stim,477,569902,0.0-6.2-127.2,go_nogo_deval,447,,<div class = centerbox><div class = fixation>+</div></div>,none,500,test,,,,,,,,,,,,-1,-1,850,0,stim,poldrack-single-stim,478,570754,0.0-6.2-128.2,go_nogo_deval,447,,<img class = center src='/static/experiments/go_nogo_deval/images/purple_pentagon.png'></img>,32,850,test,purple_pentagon,nogo2,-1,42,2,,,,,,,-1,-1,1400,0,ITI,poldrack-single-stim,479,572155,0.0-6.2-129.2,go_nogo_deval,447,,<div></div>,32,1400,test,,,,,,,,,,,,-1,-1,500,0,fixation,poldrack-single-stim,480,572657,0.0-6.2-130.2,go_nogo_deval,447,,<div class = centerbox><div class = fixation>+</div></div>,none,500,test,,,,,,,,,,,,393,32,850,0,stim,poldrack-single-stim,481,573508,0.0-6.2-131.2,go_nogo_deval,447,,<img class = center src='/static/experiments/go_nogo_deval/images/red_triangle.png'></img>,32,850,test,red_triangle,go2,32,43,2,,,,,,,-1,-1,1400,0,ITI,poldrack-single-stim,482,574909,0.0-6.2-132.2,go_nogo_deval,447,,<div></div>,32,1400,test,,,,,,,,,,,,-1,-1,500,0,fixation,poldrack-single-stim,483,575411,0.0-6.2-133.2,go_nogo_deval,447,,<div class = centerbox><div class = fixation>+</div></div>,none,500,test,,,,,,,,,,,,305,32,850,0,stim,poldrack-single-stim,484,576263,0.0-6.2-134.2,go_nogo_deval,447,,<img class = center src='/static/experiments/go_nogo_deval/images/blue_circle.png'></img>,32,850,test,blue_circle,go1,32,44,2,,,,,,,-1,-1,1400,0,ITI,poldrack-single-stim,485,577665,0.0-6.2-135.2,go_nogo_deval,447,,<div></div>,32,1400,test,,,,,,,,,,,,-1,-1,500,0,fixation,poldrack-single-stim,486,578167,0.0-6.2-136.2,go_nogo_deval,447,,<div class = centerbox><div class = fixation>+</div></div>,none,500,test,,,,,,,,,,,,340,32,850,0,stim,poldrack-single-stim,487,579018,0.0-6.2-137.2,go_nogo_deval,447,,<img class = center src='/static/experiments/go_nogo_deval/images/blue_circle.png'></img>,32,850,test,blue_circle,go1,32,45,2,,,,,,,-1,-1,1400,0,ITI,poldrack-single-stim,488,580420,0.0-6.2-138.2,go_nogo_deval,447,,<div></div>,32,1400,test,,,,,,,,,,,,-1,-1,500,0,fixation,poldrack-single-stim,489,580921,0.0-6.2-139.2,go_nogo_deval,447,,<div class = centerbox><div class = fixation>+</div></div>,none,500,test,,,,,,,,,,,,376,32,850,0,stim,poldrack-single-stim,490,581773,0.0-6.2-140.2,go_nogo_deval,447,,<img class = center src='/static/experiments/go_nogo_deval/images/red_triangle.png'></img>,32,850,test,red_triangle,go2,32,46,2,,,,,,,-1,-1,1400,0,ITI,poldrack-single-stim,491,583175,0.0-6.2-141.2,go_nogo_deval,447,,<div></div>,32,1400,test,,,,,,,,,,,,-1,-1,500,0,fixation,poldrack-single-stim,492,583677,0.0-6.2-142.2,go_nogo_deval,447,,<div class = centerbox><div class = fixation>+</div></div>,none,500,test,,,,,,,,,,,,-1,-1,850,0,stim,poldrack-single-stim,493,584528,0.0-6.2-143.2,go_nogo_deval,447,,<img class = center src='/static/experiments/go_nogo_deval/images/green_rhombus.png'></img>,32,850,test,green_rhombus,nogo1,-1,47,2,,,,,,,-1,-1,1400,0,ITI,poldrack-single-stim,494,585929,0.0-6.2-144.2,go_nogo_deval,447,,<div></div>,32,1400,test,,,,,,,,,,,,16750,13,16750,0,practice-no-stop-feedback,poldrack-single-stim,495,602684,0.0-6.3-0.3,go_nogo_deval,447,,<div class = centerbox><p class = block-text><br>Please take this time to read your feedback and to take a short break! Press enter to continue</p><p class = block-text><strong>Average reaction time:  361 ms. Accuracy: 100%</strong></p></div>,13,16750,,,,,,,,,,,,,-1,-1,500,0,fixation,poldrack-single-stim,496,603186,0.0-6.3-1.3,go_nogo_deval,447,,<div class = centerbox><div class = fixation>+</div></div>,none,500,test,,,,,,,,,,,,-1,-1,850,0,stim,poldrack-single-stim,497,604037,0.0-6.3-2.3,go_nogo_deval,447,,<img class = center src='/static/experiments/go_nogo_deval/images/green_rhombus.png'></img>,32,850,test,green_rhombus,nogo1,-1,0,3,,,,,,,-1,-1,1400,0,ITI,poldrack-single-stim,498,605439,0.0-6.3-3.3,go_nogo_deval,447,,<div></div>,32,1400,test,,,,,,,,,,,,-1,-1,500,0,fixation,poldrack-single-stim,499,605941,0.0-6.3-4.3,go_nogo_deval,447,,<div class = centerbox><div class = fixation>+</div></div>,none,500,test,,,,,,,,,,,,342,32,850,0,stim,poldrack-single-stim,500,606792,0.0-6.3-5.3,go_nogo_deval,447,,<img class = center src='/static/experiments/go_nogo_deval/images/blue_circle.png'></img>,32,850,test,blue_circle,go1,32,1,3,,,,,,,-1,-1,1400,0,ITI,poldrack-single-stim,501,608193,0.0-6.3-6.3,go_nogo_deval,447,,<div></div>,32,1400,test,,,,,,,,,,,,-1,-1,500,0,fixation,poldrack-single-stim,502,608695,0.0-6.3-7.3,go_nogo_deval,447,,<div class = centerbox><div class = fixation>+</div></div>,none,500,test,,,,,,,,,,,,-1,-1,850,0,stim,poldrack-single-stim,503,609546,0.0-6.3-8.3,go_nogo_deval,447,,<img class = center src='/static/experiments/go_nogo_deval/images/green_rhombus.png'></img>,32,850,test,green_rhombus,nogo1,-1,2,3,,,,,,,-1,-1,1400,0,ITI,poldrack-single-stim,504,610948,0.0-6.3-9.3,go_nogo_deval,447,,<div></div>,32,1400,test,,,,,,,,,,,,-1,-1,500,0,fixation,poldrack-single-stim,505,611450,0.0-6.3-10.3,go_nogo_deval,447,,<div class = centerbox><div class = fixation>+</div></div>,none,500,test,,,,,,,,,,,,458,32,850,0,stim,poldrack-single-stim,506,612300,0.0-6.3-11.3,go_nogo_deval,447,,<img class = center src='/static/experiments/go_nogo_deval/images/blue_circle.png'></img>,32,850,test,blue_circle,go1,32,3,3,,,,,,,-1,-1,1400,0,ITI,poldrack-single-stim,507,613702,0.0-6.3-12.3,go_nogo_deval,447,,<div></div>,32,1400,test,,,,,,,,,,,,-1,-1,500,0,fixation,poldrack-single-stim,508,614204,0.0-6.3-13.3,go_nogo_deval,447,,<div class = centerbox><div class = fixation>+</div></div>,none,500,test,,,,,,,,,,,,371,32,850,0,stim,poldrack-single-stim,509,615056,0.0-6.3-14.3,go_nogo_deval,447,,<img class = center src='/static/experiments/go_nogo_deval/images/red_triangle.png'></img>,32,850,test,red_triangle,go2,32,4,3,,,,,,,-1,-1,1400,0,ITI,poldrack-single-stim,510,616457,0.0-6.3-15.3,go_nogo_deval,447,,<div></div>,32,1400,test,,,,,,,,,,,,-1,-1,500,0,fixation,poldrack-single-stim,511,616958,0.0-6.3-16.3,go_nogo_deval,447,,<div class = centerbox><div class = fixation>+</div></div>,none,500,test,,,,,,,,,,,,373,32,850,0,stim,poldrack-single-stim,512,617809,0.0-6.3-17.3,go_nogo_deval,447,,<img class = center src='/static/experiments/go_nogo_deval/images/red_triangle.png'></img>,32,850,test,red_triangle,go2,32,5,3,,,,,,,-1,-1,1400,0,ITI,poldrack-single-stim,513,619211,0.0-6.3-18.3,go_nogo_deval,447,,<div></div>,32,1400,test,,,,,,,,,,,,-1,-1,500,0,fixation,poldrack-single-stim,514,619713,0.0-6.3-19.3,go_nogo_deval,447,,<div class = centerbox><div class = fixation>+</div></div>,none,500,test,,,,,,,,,,,,363,32,850,0,stim,poldrack-single-stim,515,620565,0.0-6.3-20.3,go_nogo_deval,447,,<img class = center src='/static/experiments/go_nogo_deval/images/blue_circle.png'></img>,32,850,test,blue_circle,go1,32,6,3,,,,,,,-1,-1,1400,0,ITI,poldrack-single-stim,516,621967,0.0-6.3-21.3,go_nogo_deval,447,,<div></div>,32,1400,test,,,,,,,,,,,,-1,-1,500,0,fixation,poldrack-single-stim,517,622468,0.0-6.3-22.3,go_nogo_deval,447,,<div class = centerbox><div class = fixation>+</div></div>,none,500,test,,,,,,,,,,,,318,32,850,0,stim,poldrack-single-stim,518,623320,0.0-6.3-23.3,go_nogo_deval,447,,<img class = center src='/static/experiments/go_nogo_deval/images/red_triangle.png'></img>,32,850,test,red_triangle,go2,32,7,3,,,,,,,-1,-1,1400,0,ITI,poldrack-single-stim,519,624722,0.0-6.3-24.3,go_nogo_deval,447,,<div></div>,32,1400,test,,,,,,,,,,,,-1,-1,500,0,fixation,poldrack-single-stim,520,625223,0.0-6.3-25.3,go_nogo_deval,447,,<div class = centerbox><div class = fixation>+</div></div>,none,500,test,,,,,,,,,,,,-1,-1,850,0,stim,poldrack-single-stim,521,626074,0.0-6.3-26.3,go_nogo_deval,447,,<img class = center src='/static/experiments/go_nogo_deval/images/purple_pentagon.png'></img>,32,850,test,purple_pentagon,nogo2,-1,8,3,,,,,,,-1,-1,1400,0,ITI,poldrack-single-stim,522,627476,0.0-6.3-27.3,go_nogo_deval,447,,<div></div>,32,1400,test,,,,,,,,,,,,-1,-1,500,0,fixation,poldrack-single-stim,523,627978,0.0-6.3-28.3,go_nogo_deval,447,,<div class = centerbox><div class = fixation>+</div></div>,none,500,test,,,,,,,,,,,,288,32,850,0,stim,poldrack-single-stim,524,628830,0.0-6.3-29.3,go_nogo_deval,447,,<img class = center src='/static/experiments/go_nogo_deval/images/red_triangle.png'></img>,32,850,test,red_triangle,go2,32,9,3,,,,,,,-1,-1,1400,0,ITI,poldrack-single-stim,525,630231,0.0-6.3-30.3,go_nogo_deval,447,,<div></div>,32,1400,test,,,,,,,,,,,,-1,-1,500,0,fixation,poldrack-single-stim,526,630733,0.0-6.3-31.3,go_nogo_deval,447,,<div class = centerbox><div class = fixation>+</div></div>,none,500,test,,,,,,,,,,,,368,32,850,0,stim,poldrack-single-stim,527,631584,0.0-6.3-32.3,go_nogo_deval,447,,<img class = center src='/static/experiments/go_nogo_deval/images/red_triangle.png'></img>,32,850,test,red_triangle,go2,32,10,3,,,,,,,-1,-1,1400,0,ITI,poldrack-single-stim,528,632986,0.0-6.3-33.3,go_nogo_deval,447,,<div></div>,32,1400,test,,,,,,,,,,,,-1,-1,500,0,fixation,poldrack-single-stim,529,633487,0.0-6.3-34.3,go_nogo_deval,447,,<div class = centerbox><div class = fixation>+</div></div>,none,500,test,,,,,,,,,,,,336,32,850,0,stim,poldrack-single-stim,530,634338,0.0-6.3-35.3,go_nogo_deval,447,,<img class = center src='/static/experiments/go_nogo_deval/images/red_triangle.png'></img>,32,850,test,red_triangle,go2,32,11,3,,,,,,,-1,-1,1400,0,ITI,poldrack-single-stim,531,635740,0.0-6.3-36.3,go_nogo_deval,447,,<div></div>,32,1400,test,,,,,,,,,,,,-1,-1,500,0,fixation,poldrack-single-stim,532,636242,0.0-6.3-37.3,go_nogo_deval,447,,<div class = centerbox><div class = fixation>+</div></div>,none,500,test,,,,,,,,,,,,349,32,850,0,stim,poldrack-single-stim,533,637093,0.0-6.3-38.3,go_nogo_deval,447,,<img class = center src='/static/experiments/go_nogo_deval/images/red_triangle.png'></img>,32,850,test,red_triangle,go2,32,12,3,,,,,,,-1,-1,1400,0,ITI,poldrack-single-stim,534,638494,0.0-6.3-39.3,go_nogo_deval,447,,<div></div>,32,1400,test,,,,,,,,,,,,-1,-1,500,0,fixation,poldrack-single-stim,535,638996,0.0-6.3-40.3,go_nogo_deval,447,,<div class = centerbox><div class = fixation>+</div></div>,none,500,test,,,,,,,,,,,,318,32,850,0,stim,poldrack-single-stim,536,639848,0.0-6.3-41.3,go_nogo_deval,447,,<img class = center src='/static/experiments/go_nogo_deval/images/red_triangle.png'></img>,32,850,test,red_triangle,go2,32,13,3,,,,,,,-1,-1,1400,0,ITI,poldrack-single-stim,537,641250,0.0-6.3-42.3,go_nogo_deval,447,,<div></div>,32,1400,test,,,,,,,,,,,,-1,-1,500,0,fixation,poldrack-single-stim,538,641751,0.0-6.3-43.3,go_nogo_deval,447,,<div class = centerbox><div class = fixation>+</div></div>,none,500,test,,,,,,,,,,,,307,32,850,0,stim,poldrack-single-stim,539,642603,0.0-6.3-44.3,go_nogo_deval,447,,<img class = center src='/static/experiments/go_nogo_deval/images/red_triangle.png'></img>,32,850,test,red_triangle,go2,32,14,3,,,,,,,-1,-1,1400,0,ITI,poldrack-single-stim,540,644005,0.0-6.3-45.3,go_nogo_deval,447,,<div></div>,32,1400,test,,,,,,,,,,,,-1,-1,500,0,fixation,poldrack-single-stim,541,644506,0.0-6.3-46.3,go_nogo_deval,447,,<div class = centerbox><div class = fixation>+</div></div>,none,500,test,,,,,,,,,,,,308,32,850,0,stim,poldrack-single-stim,542,645357,0.0-6.3-47.3,go_nogo_deval,447,,<img class = center src='/static/experiments/go_nogo_deval/images/blue_circle.png'></img>,32,850,test,blue_circle,go1,32,15,3,,,,,,,-1,-1,1400,0,ITI,poldrack-single-stim,543,646759,0.0-6.3-48.3,go_nogo_deval,447,,<div></div>,32,1400,test,,,,,,,,,,,,-1,-1,500,0,fixation,poldrack-single-stim,544,647260,0.0-6.3-49.3,go_nogo_deval,447,,<div class = centerbox><div class = fixation>+</div></div>,none,500,test,,,,,,,,,,,,310,32,850,0,stim,poldrack-single-stim,545,648112,0.0-6.3-50.3,go_nogo_deval,447,,<img class = center src='/static/experiments/go_nogo_deval/images/blue_circle.png'></img>,32,850,test,blue_circle,go1,32,16,3,,,,,,,-1,-1,1400,0,ITI,poldrack-single-stim,546,649514,0.0-6.3-51.3,go_nogo_deval,447,,<div></div>,32,1400,test,,,,,,,,,,,,-1,-1,500,0,fixation,poldrack-single-stim,547,650016,0.0-6.3-52.3,go_nogo_deval,447,,<div class = centerbox><div class = fixation>+</div></div>,none,500,test,,,,,,,,,,,,-1,-1,850,0,stim,poldrack-single-stim,548,650867,0.0-6.3-53.3,go_nogo_deval,447,,<img class = center src='/static/experiments/go_nogo_deval/images/green_rhombus.png'></img>,32,850,test,green_rhombus,nogo1,-1,17,3,,,,,,,-1,-1,1400,0,ITI,poldrack-single-stim,549,652269,0.0-6.3-54.3,go_nogo_deval,447,,<div></div>,32,1400,test,,,,,,,,,,,,-1,-1,500,0,fixation,poldrack-single-stim,550,652771,0.0-6.3-55.3,go_nogo_deval,447,,<div class = centerbox><div class = fixation>+</div></div>,none,500,test,,,,,,,,,,,,347,32,850,0,stim,poldrack-single-stim,551,653622,0.0-6.3-56.3,go_nogo_deval,447,,<img class = center src='/static/experiments/go_nogo_deval/images/blue_circle.png'></img>,32,850,test,blue_circle,go1,32,18,3,,,,,,,-1,-1,1400,0,ITI,poldrack-single-stim,552,655023,0.0-6.3-57.3,go_nogo_deval,447,,<div></div>,32,1400,test,,,,,,,,,,,,-1,-1,500,0,fixation,poldrack-single-stim,553,655525,0.0-6.3-58.3,go_nogo_deval,447,,<div class = centerbox><div class = fixation>+</div></div>,none,500,test,,,,,,,,,,,,394,32,850,0,stim,poldrack-single-stim,554,656376,0.0-6.3-59.3,go_nogo_deval,447,,<img class = center src='/static/experiments/go_nogo_deval/images/blue_circle.png'></img>,32,850,test,blue_circle,go1,32,19,3,,,,,,,-1,-1,1400,0,ITI,poldrack-single-stim,555,657777,0.0-6.3-60.3,go_nogo_deval,447,,<div></div>,32,1400,test,,,,,,,,,,,,-1,-1,500,0,fixation,poldrack-single-stim,556,658279,0.0-6.3-61.3,go_nogo_deval,447,,<div class = centerbox><div class = fixation>+</div></div>,none,500,test,,,,,,,,,,,,327,32,850,0,stim,poldrack-single-stim,557,659131,0.0-6.3-62.3,go_nogo_deval,447,,<img class = center src='/static/experiments/go_nogo_deval/images/red_triangle.png'></img>,32,850,test,red_triangle,go2,32,20,3,,,,,,,-1,-1,1400,0,ITI,poldrack-single-stim,558,660532,0.0-6.3-63.3,go_nogo_deval,447,,<div></div>,32,1400,test,,,,,,,,,,,,-1,-1,500,0,fixation,poldrack-single-stim,559,661033,0.0-6.3-64.3,go_nogo_deval,447,,<div class = centerbox><div class = fixation>+</div></div>,none,500,test,,,,,,,,,,,,443,32,850,0,stim,poldrack-single-stim,560,661884,0.0-6.3-65.3,go_nogo_deval,447,,<img class = center src='/static/experiments/go_nogo_deval/images/blue_circle.png'></img>,32,850,test,blue_circle,go1,32,21,3,,,,,,,-1,-1,1400,0,ITI,poldrack-single-stim,561,663286,0.0-6.3-66.3,go_nogo_deval,447,,<div></div>,32,1400,test,,,,,,,,,,,,-1,-1,500,0,fixation,poldrack-single-stim,562,663788,0.0-6.3-67.3,go_nogo_deval,447,,<div class = centerbox><div class = fixation>+</div></div>,none,500,test,,,,,,,,,,,,-1,-1,850,0,stim,poldrack-single-stim,563,664640,0.0-6.3-68.3,go_nogo_deval,447,,<img class = center src='/static/experiments/go_nogo_deval/images/purple_pentagon.png'></img>,32,850,test,purple_pentagon,nogo2,-1,22,3,,,,,,,-1,-1,1400,0,ITI,poldrack-single-stim,564,666041,0.0-6.3-69.3,go_nogo_deval,447,,<div></div>,32,1400,test,,,,,,,,,,,,-1,-1,500,0,fixation,poldrack-single-stim,565,666542,0.0-6.3-70.3,go_nogo_deval,447,,<div class = centerbox><div class = fixation>+</div></div>,none,500,test,,,,,,,,,,,,379,32,850,0,stim,poldrack-single-stim,566,667393,0.0-6.3-71.3,go_nogo_deval,447,,<img class = center src='/static/experiments/go_nogo_deval/images/blue_circle.png'></img>,32,850,test,blue_circle,go1,32,23,3,,,,,,,-1,-1,1400,0,ITI,poldrack-single-stim,567,668795,0.0-6.3-72.3,go_nogo_deval,447,,<div></div>,32,1400,test,,,,,,,,,,,,-1,-1,500,0,fixation,poldrack-single-stim,568,669297,0.0-6.3-73.3,go_nogo_deval,447,,<div class = centerbox><div class = fixation>+</div></div>,none,500,test,,,,,,,,,,,,313,32,850,0,stim,poldrack-single-stim,569,670149,0.0-6.3-74.3,go_nogo_deval,447,,<img class = center src='/static/experiments/go_nogo_deval/images/blue_circle.png'></img>,32,850,test,blue_circle,go1,32,24,3,,,,,,,-1,-1,1400,0,ITI,poldrack-single-stim,570,671550,0.0-6.3-75.3,go_nogo_deval,447,,<div></div>,32,1400,test,,,,,,,,,,,,-1,-1,500,0,fixation,poldrack-single-stim,571,672052,0.0-6.3-76.3,go_nogo_deval,447,,<div class = centerbox><div class = fixation>+</div></div>,none,500,test,,,,,,,,,,,,-1,-1,850,0,stim,poldrack-single-stim,572,672903,0.0-6.3-77.3,go_nogo_deval,447,,<img class = center src='/static/experiments/go_nogo_deval/images/purple_pentagon.png'></img>,32,850,test,purple_pentagon,nogo2,-1,25,3,,,,,,,-1,-1,1400,0,ITI,poldrack-single-stim,573,674305,0.0-6.3-78.3,go_nogo_deval,447,,<div></div>,32,1400,test,,,,,,,,,,,,-1,-1,500,0,fixation,poldrack-single-stim,574,674806,0.0-6.3-79.3,go_nogo_deval,447,,<div class = centerbox><div class = fixation>+</div></div>,none,500,test,,,,,,,,,,,