text,rt,key_press,block_duration,timing_post_trial,trial_id,trial_type,trial_index,time_elapsed,internal_node_id,exp_id,subject_ID,view_history,stimulus,possible_responses,stim_duration,exp_stage,stim,correct_response,current_trial,current_block,chosenStim,chosenCond,stimLeft,cond_left,stimRight,cond_right<div class = centerbox><p class = center-block-text>Welcome to the task!</p><p class = center-block-text>Press<strong> enter</strong> to continue.</p></div>,1594,13,1594,0,welcome,poldrack-text,0,1595,0.0-0.0,go_nogo_deval,424,,,,,,,,,,,,,,,,11115,,,,instruction,poldrack-instructions,1,12712,0.0-1.0,go_nogo_deval,424,"[{""page_index"":0,""viewing_time"":4286},{""page_index"":1,""viewing_time"":6829}]",,,,,,,,,,,,,,,1032,13,1032,0,stop_intro_phase1,poldrack-single-stim,2,14746,0.0-2.0,go_nogo_deval,424,,"<div class = centerbox><p class = block-text>We will now start the practice for the experiment.<br><br>For these trials, you must press the <strong>spacebar </strong> or have <strong>no response</strong> depending on the shape of the stimulus.  Make sure to respond as quickly and accurately as possible to the shape. <br><br> The responses for each shape are as follows: <ul list-text><li>pentagon: spacebar</li><li>rhombus: spacebar</li><li>triangle: no response</li><li>circle: no response</li></ul></p><p class = block-text>Remember these rules before you proceed.</p><p class = block-text>Press <strong> enter</strong> to begin.</p></div>",13,1032,,,,,,,,,,,,1101,13,1101,0,practice-no-stop-feedback,poldrack-single-stim,3,15849,0.0-3.0-0.0,go_nogo_deval,424,,<div class = centerbox><p class = block-text>We will now start with a practice session. In this practice concentrate on responding quickly and accurately to each stimuli unless it requires no response.</p><p class = block-text>Press enter to continue.</p></div>,13,1101,,,,,,,,,,,,-1,-1,500,0,prompt_fixation,poldrack-single-stim,4,16352,0.0-3.0-1.0,go_nogo_deval,424,,<div class = centerbox><div class = fixation>+</div></div>,none,500,practice,,,,,,,,,,,-1,-1,850,0,stim,nogo1,5,17203,0.0-3.0-2.0,go_nogo_deval,424,,<img class = center src='/static/experiments/go_nogo_deval/images/red_triangle.png'></img>,32,850,practice,red_triangle,-1,0,0,,,,,,,-1,-1,1400,0,stim,poldrack-single-stim,6,18605,0.0-3.0-3.0,go_nogo_deval,424,,<div></div>,32,1400,test,,,,,,,,,,,-1,-1,500,0,prompt_fixation,poldrack-single-stim,7,19107,0.0-3.0-4.0,go_nogo_deval,424,,<div class = centerbox><div class = fixation>+</div></div>,none,500,practice,,,,,,,,,,,374,32,850,0,stim,go1,8,19959,0.0-3.0-5.0,go_nogo_deval,424,,<img class = center src='/static/experiments/go_nogo_deval/images/purple_pentagon.png'></img>,32,850,practice,purple_pentagon,32,1,0,,,,,,,-1,-1,1400,0,stim,poldrack-single-stim,9,21361,0.0-3.0-6.0,go_nogo_deval,424,,<div></div>,32,1400,test,,,,,,,,,,,-1,-1,500,0,prompt_fixation,poldrack-single-stim,10,21863,0.0-3.0-7.0,go_nogo_deval,424,,<div class = centerbox><div class = fixation>+</div></div>,none,500,practice,,,,,,,,,,,430,32,850,0,stim,nogo1,11,22715,0.0-3.0-8.0,go_nogo_deval,424,,<img class = center src='/static/experiments/go_nogo_deval/images/red_triangle.png'></img>,32,850,practice,red_triangle,-1,2,0,,,,,,,-1,-1,1400,0,stim,poldrack-single-stim,12,24117,0.0-3.0-9.0,go_nogo_deval,424,,<div></div>,32,1400,test,,,,,,,,,,,-1,-1,500,0,prompt_fixation,poldrack-single-stim,13,24618,0.0-3.0-10.0,go_nogo_deval,424,,<div class = centerbox><div class = fixation>+</div></div>,none,500,practice,,,,,,,,,,,477,32,850,0,stim,nogo2,14,25469,0.0-3.0-11.0,go_nogo_deval,424,,<img class = center src='/static/experiments/go_nogo_deval/images/blue_circle.png'></img>,32,850,practice,blue_circle,-1,3,0,,,,,,,-1,-1,1400,0,stim,poldrack-single-stim,15,26871,0.0-3.0-12.0,go_nogo_deval,424,,<div></div>,32,1400,test,,,,,,,,,,,-1,-1,500,0,prompt_fixation,poldrack-single-stim,16,27373,0.0-3.0-13.0,go_nogo_deval,424,,<div class = centerbox><div class = fixation>+</div></div>,none,500,practice,,,,,,,,,,,479,32,850,0,stim,go2,17,28224,0.0-3.0-14.0,go_nogo_deval,424,,<img class = center src='/static/experiments/go_nogo_deval/images/green_rhombus.png'></img>,32,850,practice,green_rhombus,32,4,0,,,,,,,-1,-1,1400,0,stim,poldrack-single-stim,18,29626,0.0-3.0-15.0,go_nogo_deval,424,,<div></div>,32,1400,test,,,,,,,,,,,-1,-1,500,0,prompt_fixation,poldrack-single-stim,19,30128,0.0-3.0-16.0,go_nogo_deval,424,,<div class = centerbox><div class = fixation>+</div></div>,none,500,practice,,,,,,,,,,,683,32,850,0,stim,go2,20,30980,0.0-3.0-17.0,go_nogo_deval,424,,<img class = center src='/static/experiments/go_nogo_deval/images/green_rhombus.png'></img>,32,850,practice,green_rhombus,32,5,0,,,,,,,-1,-1,1400,0,stim,poldrack-single-stim,21,32382,0.0-3.0-18.0,go_nogo_deval,424,,<div></div>,32,1400,test,,,,,,,,,,,-1,-1,500,0,prompt_fixation,poldrack-single-stim,22,32883,0.0-3.0-19.0,go_nogo_deval,424,,<div class = centerbox><div class = fixation>+</div></div>,none,500,practice,,,,,,,,,,,604,32,850,0,stim,go1,23,33735,0.0-3.0-20.0,go_nogo_deval,424,,<img class = center src='/static/experiments/go_nogo_deval/images/purple_pentagon.png'></img>,32,850,practice,purple_pentagon,32,6,0,,,,,,,-1,-1,1400,0,stim,poldrack-single-stim,24,35137,0.0-3.0-21.0,go_nogo_deval,424,,<div></div>,32,1400,test,,,,,,,,,,,-1,-1,500,0,prompt_fixation,poldrack-single-stim,25,35639,0.0-3.0-22.0,go_nogo_deval,424,,<div class = centerbox><div class = fixation>+</div></div>,none,500,practice,,,,,,,,,,,448,32,850,0,stim,nogo2,26,36490,0.0-3.0-23.0,go_nogo_deval,424,,<img class = center src='/static/experiments/go_nogo_deval/images/blue_circle.png'></img>,32,850,practice,blue_circle,-1,7,0,,,,,,,-1,-1,1400,0,stim,poldrack-single-stim,27,37891,0.0-3.0-24.0,go_nogo_deval,424,,<div></div>,32,1400,test,,,,,,,,,,,-1,-1,500,0,prompt_fixation,poldrack-single-stim,28,38393,0.0-3.0-25.0,go_nogo_deval,424,,<div class = centerbox><div class = fixation>+</div></div>,none,500,practice,,,,,,,,,,,-1,-1,850,0,stim,nogo2,29,39245,0.0-3.0-26.0,go_nogo_deval,424,,<img class = center src='/static/experiments/go_nogo_deval/images/blue_circle.png'></img>,32,850,practice,blue_circle,-1,8,0,,,,,,,-1,-1,1400,0,stim,poldrack-single-stim,30,40647,0.0-3.0-27.0,go_nogo_deval,424,,<div></div>,32,1400,test,,,,,,,,,,,-1,-1,500,0,prompt_fixation,poldrack-single-stim,31,41149,0.0-3.0-28.0,go_nogo_deval,424,,<div class = centerbox><div class = fixation>+</div></div>,none,500,practice,,,,,,,,,,,575,32,850,0,stim,go2,32,42001,0.0-3.0-29.0,go_nogo_deval,424,,<img class = center src='/static/experiments/go_nogo_deval/images/green_rhombus.png'></img>,32,850,practice,green_rhombus,32,9,0,,,,,,,-1,-1,1400,0,stim,poldrack-single-stim,33,43403,0.0-3.0-30.0,go_nogo_deval,424,,<div></div>,32,1400,test,,,,,,,,,,,-1,-1,500,0,prompt_fixation,poldrack-single-stim,34,43905,0.0-3.0-31.0,go_nogo_deval,424,,<div class = centerbox><div class = fixation>+</div></div>,none,500,practice,,,,,,,,,,,530,32,850,0,stim,go2,35,44757,0.0-3.0-32.0,go_nogo_deval,424,,<img class = center src='/static/experiments/go_nogo_deval/images/green_rhombus.png'></img>,32,850,practice,green_rhombus,32,10,0,,,,,,,-1,-1,1400,0,stim,poldrack-single-stim,36,46160,0.0-3.0-33.0,go_nogo_deval,424,,<div></div>,32,1400,test,,,,,,,,,,,-1,-1,500,0,prompt_fixation,poldrack-single-stim,37,46662,0.0-3.0-34.0,go_nogo_deval,424,,<div class = centerbox><div class = fixation>+</div></div>,none,500,practice,,,,,,,,,,,-1,-1,850,0,stim,nogo1,38,47514,0.0-3.0-35.0,go_nogo_deval,424,,<img class = center src='/static/experiments/go_nogo_deval/images/red_triangle.png'></img>,32,850,practice,red_triangle,-1,11,0,,,,,,,-1,-1,1400,0,stim,poldrack-single-stim,39,48916,0.0-3.0-36.0,go_nogo_deval,424,,<div></div>,32,1400,test,,,,,,,,,,,-1,-1,500,0,prompt_fixation,poldrack-single-stim,40,49417,0.0-3.0-37.0,go_nogo_deval,424,,<div class = centerbox><div class = fixation>+</div></div>,none,500,practice,,,,,,,,,,,405,32,850,0,stim,go2,41,50269,0.0-3.0-38.0,go_nogo_deval,424,,<img class = center src='/static/experiments/go_nogo_deval/images/green_rhombus.png'></img>,32,850,practice,green_rhombus,32,12,0,,,,,,,-1,-1,1400,0,stim,poldrack-single-stim,42,51671,0.0-3.0-39.0,go_nogo_deval,424,,<div></div>,32,1400,test,,,,,,,,,,,-1,-1,500,0,prompt_fixation,poldrack-single-stim,43,52173,0.0-3.0-40.0,go_nogo_deval,424,,<div class = centerbox><div class = fixation>+</div></div>,none,500,practice,,,,,,,,,,,451,32,850,0,stim,go1,44,53025,0.0-3.0-41.0,go_nogo_deval,424,,<img class = center src='/static/experiments/go_nogo_deval/images/purple_pentagon.png'></img>,32,850,practice,purple_pentagon,32,13,0,,,,,,,-1,-1,1400,0,stim,poldrack-single-stim,45,54427,0.0-3.0-42.0,go_nogo_deval,424,,<div></div>,32,1400,test,,,,,,,,,,,-1,-1,500,0,prompt_fixation,poldrack-single-stim,46,54930,0.0-3.0-43.0,go_nogo_deval,424,,<div class = centerbox><div class = fixation>+</div></div>,none,500,practice,,,,,,,,,,,474,32,850,0,stim,go1,47,55781,0.0-3.0-44.0,go_nogo_deval,424,,<img class = center src='/static/experiments/go_nogo_deval/images/purple_pentagon.png'></img>,32,850,practice,purple_pentagon,32,14,0,,,,,,,-1,-1,1400,0,stim,poldrack-single-stim,48,57182,0.0-3.0-45.0,go_nogo_deval,424,,<div></div>,32,1400,test,,,,,,,,,,,-1,-1,500,0,prompt_fixation,poldrack-single-stim,49,57684,0.0-3.0-46.0,go_nogo_deval,424,,<div class = centerbox><div class = fixation>+</div></div>,none,500,practice,,,,,,,,,,,498,32,850,0,stim,go1,50,58536,0.0-3.0-47.0,go_nogo_deval,424,,<img class = center src='/static/experiments/go_nogo_deval/images/purple_pentagon.png'></img>,32,850,practice,purple_pentagon,32,15,0,,,,,,,-1,-1,1400,0,stim,poldrack-single-stim,51,59938,0.0-3.0-48.0,go_nogo_deval,424,,<div></div>,32,1400,test,,,,,,,,,,,-1,-1,500,0,prompt_fixation,poldrack-single-stim,52,60440,0.0-3.0-49.0,go_nogo_deval,424,,<div class = centerbox><div class = fixation>+</div></div>,none,500,practice,,,,,,,,,,,465,32,850,0,stim,go1,53,61292,0.0-3.0-50.0,go_nogo_deval,424,,<img class = center src='/static/experiments/go_nogo_deval/images/purple_pentagon.png'></img>,32,850,practice,purple_pentagon,32,16,0,,,,,,,-1,-1,1400,0,stim,poldrack-single-stim,54,62694,0.0-3.0-51.0,go_nogo_deval,424,,<div></div>,32,1400,test,,,,,,,,,,,-1,-1,500,0,prompt_fixation,poldrack-single-stim,55,63195,0.0-3.0-52.0,go_nogo_deval,424,,<div class = centerbox><div class = fixation>+</div></div>,none,500,practice,,,,,,,,,,,422,32,850,0,stim,go2,56,64047,0.0-3.0-53.0,go_nogo_deval,424,,<img class = center src='/static/experiments/go_nogo_deval/images/green_rhombus.png'></img>,32,850,practice,green_rhombus,32,17,0,,,,,,,-1,-1,1400,0,stim,poldrack-single-stim,57,65449,0.0-3.0-54.0,go_nogo_deval,424,,<div></div>,32,1400,test,,,,,,,,,,,17629,13,17629,0,practice-no-stop-feedback,poldrack-single-stim,58,83080,0.0-4.0,go_nogo_deval,424,,<div class = centerbox><p class = block-text><br>Please take this time to read your feedback and to take a short break! Press enter to continue</p><p class = block-text><strong>Average reaction time:  488 ms. Accuracy: 42%</strong></p><p class = block-text>Done with this practice.</p></div>,13,17629,,,,,,,,,,,,45877,13,45877,0,main_stop_intro_phase3,poldrack-single-stim,59,128958,0.0-5.0,go_nogo_deval,424,,"<div class = centerbox><p class = block-text>We will now start the main phase of the experiment.<br><br>These trials are the same as the trials that you have just completed. <br><br>The rules for each shape are as follows:  <br><ul list-text><li>pentagon: spacebar</li><li>rhombus: spacebar</li><li>triangle: no response</li><li>circle: no response</li></ul></p><p class = block-text>Remember these rules before you proceed, as they will no longer be presented during the trial.</p><p class = block-text>Press <strong> enter</strong> to begin.</p></div>",13,45877,,,,,,,,,,,,2665,13,2665,0,practice-no-stop-feedback,poldrack-single-stim,60,131623,0.0-6.0-0.0,go_nogo_deval,424,,"<div class = centerbox><p class = block-text>We will now start with a test session. In this test, concentrate on responding quickly and accurately to each stimuli unless it requires no response.</p><p class = block-text>Press enter to continue.</p></div>",13,2665,,,,,,,,,,,,-1,-1,500,0,fixation,poldrack-single-stim,61,132125,0.0-6.0-1.0,go_nogo_deval,424,,<div class = centerbox><div class = fixation>+</div></div>,none,500,test,,,,,,,,,,,420,32,850,0,stim,go2,62,132977,0.0-6.0-2.0,go_nogo_deval,424,,<img class = center src='/static/experiments/go_nogo_deval/images/green_rhombus.png'></img>,32,850,test,green_rhombus,32,0,0,,,,,,,-1,-1,1400,0,stim,poldrack-single-stim,63,134379,0.0-6.0-3.0,go_nogo_deval,424,,<div></div>,32,1400,test,,,,,,,,,,,-1,-1,500,0,fixation,poldrack-single-stim,64,134880,0.0-6.0-4.0,go_nogo_deval,424,,<div class = centerbox><div class = fixation>+</div></div>,none,500,test,,,,,,,,,,,467,32,850,0,stim,go2,65,135732,0.0-6.0-5.0,go_nogo_deval,424,,<img class = center src='/static/experiments/go_nogo_deval/images/green_rhombus.png'></img>,32,850,test,green_rhombus,32,1,0,,,,,,,-1,-1,1400,0,stim,poldrack-single-stim,66,137134,0.0-6.0-6.0,go_nogo_deval,424,,<div></div>,32,1400,test,,,,,,,,,,,-1,-1,500,0,fixation,poldrack-single-stim,67,137636,0.0-6.0-7.0,go_nogo_deval,424,,<div class = centerbox><div class = fixation>+</div></div>,none,500,test,,,,,,,,,,,400,32,850,0,stim,go2,68,138488,0.0-6.0-8.0,go_nogo_deval,424,,<img class = center src='/static/experiments/go_nogo_deval/images/green_rhombus.png'></img>,32,850,test,green_rhombus,32,2,0,,,,,,,-1,-1,1400,0,stim,poldrack-single-stim,69,139889,0.0-6.0-9.0,go_nogo_deval,424,,<div></div>,32,1400,test,,,,,,,,,,,-1,-1,500,0,fixation,poldrack-single-stim,70,140390,0.0-6.0-10.0,go_nogo_deval,424,,<div class = centerbox><div class = fixation>+</div></div>,none,500,test,,,,,,,,,,,-1,-1,850,0,stim,nogo2,71,141242,0.0-6.0-11.0,go_nogo_deval,424,,<img class = center src='/static/experiments/go_nogo_deval/images/blue_circle.png'></img>,32,850,test,blue_circle,-1,3,0,,,,,,,-1,-1,1400,0,stim,poldrack-single-stim,72,142644,0.0-6.0-12.0,go_nogo_deval,424,,<div></div>,32,1400,test,,,,,,,,,,,-1,-1,500,0,fixation,poldrack-single-stim,73,143146,0.0-6.0-13.0,go_nogo_deval,424,,<div class = centerbox><div class = fixation>+</div></div>,none,500,test,,,,,,,,,,,369,32,850,0,stim,go1,74,143998,0.0-6.0-14.0,go_nogo_deval,424,,<img class = center src='/static/experiments/go_nogo_deval/images/purple_pentagon.png'></img>,32,850,test,purple_pentagon,32,4,0,,,,,,,-1,-1,1400,0,stim,poldrack-single-stim,75,145400,0.0-6.0-15.0,go_nogo_deval,424,,<div></div>,32,1400,test,,,,,,,,,,,-1,-1,500,0,fixation,poldrack-single-stim,76,145901,0.0-6.0-16.0,go_nogo_deval,424,,<div class = centerbox><div class = fixation>+</div></div>,none,500,test,,,,,,,,,,,-1,-1,850,0,stim,nogo1,77,146753,0.0-6.0-17.0,go_nogo_deval,424,,<img class = center src='/static/experiments/go_nogo_deval/images/red_triangle.png'></img>,32,850,test,red_triangle,-1,5,0,,,,,,,-1,-1,1400,0,stim,poldrack-single-stim,78,148155,0.0-6.0-18.0,go_nogo_deval,424,,<div></div>,32,1400,test,,,,,,,,,,,-1,-1,500,0,fixation,poldrack-single-stim,79,148656,0.0-6.0-19.0,go_nogo_deval,424,,<div class = centerbox><div class = fixation>+</div></div>,none,500,test,,,,,,,,,,,471,32,850,0,stim,go2,80,149508,0.0-6.0-20.0,go_nogo_deval,424,,<img class = center src='/static/experiments/go_nogo_deval/images/green_rhombus.png'></img>,32,850,test,green_rhombus,32,6,0,,,,,,,-1,-1,1400,0,stim,poldrack-single-stim,81,150910,0.0-6.0-21.0,go_nogo_deval,424,,<div></div>,32,1400,test,,,,,,,,,,,-1,-1,500,0,fixation,poldrack-single-stim,82,151411,0.0-6.0-22.0,go_nogo_deval,424,,<div class = centerbox><div class = fixation>+</div></div>,none,500,test,,,,,,,,,,,-1,-1,850,0,stim,nogo1,83,152263,0.0-6.0-23.0,go_nogo_deval,424,,<img class = center src='/static/experiments/go_nogo_deval/images/red_triangle.png'></img>,32,850,test,red_triangle,-1,7,0,,,,,,,-1,-1,1400,0,stim,poldrack-single-stim,84,153665,0.0-6.0-24.0,go_nogo_deval,424,,<div></div>,32,1400,test,,,,,,,,,,,-1,-1,500,0,fixation,poldrack-single-stim,85,154168,0.0-6.0-25.0,go_nogo_deval,424,,<div class = centerbox><div class = fixation>+</div></div>,none,500,test,,,,,,,,,,,-1,-1,850,0,stim,nogo2,86,155020,0.0-6.0-26.0,go_nogo_deval,424,,<img class = center src='/static/experiments/go_nogo_deval/images/blue_circle.png'></img>,32,850,test,blue_circle,-1,8,0,,,,,,,-1,-1,1400,0,stim,poldrack-single-stim,87,156421,0.0-6.0-27.0,go_nogo_deval,424,,<div></div>,32,1400,test,,,,,,,,,,,-1,-1,500,0,fixation,poldrack-single-stim,88,156923,0.0-6.0-28.0,go_nogo_deval,424,,<div class = centerbox><div class = fixation>+</div></div>,none,500,test,,,,,,,,,,,-1,-1,850,0,stim,nogo2,89,157774,0.0-6.0-29.0,go_nogo_deval,424,,<img class = center src='/static/experiments/go_nogo_deval/images/blue_circle.png'></img>,32,850,test,blue_circle,-1,9,0,,,,,,,-1,-1,1400,0,stim,poldrack-single-stim,90,159176,0.0-6.0-30.0,go_nogo_deval,424,,<div></div>,32,1400,test,,,,,,,,,,,-1,-1,500,0,fixation,poldrack-single-stim,91,159678,0.0-6.0-31.0,go_nogo_deval,424,,<div class = centerbox><div class = fixation>+</div></div>,none,500,test,,,,,,,,,,,-1,-1,850,0,stim,nogo1,92,160529,0.0-6.0-32.0,go_nogo_deval,424,,<img class = center src='/static/experiments/go_nogo_deval/images/red_triangle.png'></img>,32,850,test,red_triangle,-1,10,0,,,,,,,-1,-1,1400,0,stim,poldrack-single-stim,93,161931,0.0-6.0-33.0,go_nogo_deval,424,,<div></div>,32,1400,test,,,,,,,,,,,-1,-1,500,0,fixation,poldrack-single-stim,94,162433,0.0-6.0-34.0,go_nogo_deval,424,,<div class = centerbox><div class = fixation>+</div></div>,none,500,test,,,,,,,,,,,409,32,850,0,stim,go1,95,163285,0.0-6.0-35.0,go_nogo_deval,424,,<img class = center src='/static/experiments/go_nogo_deval/images/purple_pentagon.png'></img>,32,850,test,purple_pentagon,32,11,0,,,,,,,-1,-1,1400,0,stim,poldrack-single-stim,96,164687,0.0-6.0-36.0,go_nogo_deval,424,,<div></div>,32,1400,test,,,,,,,,,,,-1,-1,500,0,fixation,poldrack-single-stim,97,165189,0.0-6.0-37.0,go_nogo_deval,424,,<div class = centerbox><div class = fixation>+</div></div>,none,500,test,,,,,,,,,,,-1,-1,850,0,stim,nogo2,98,166040,0.0-6.0-38.0,go_nogo_deval,424,,<img class = center src='/static/experiments/go_nogo_deval/images/blue_circle.png'></img>,32,850,test,blue_circle,-1,12,0,,,,,,,-1,-1,1400,0,stim,poldrack-single-stim,99,167441,0.0-6.0-39.0,go_nogo_deval,424,,<div></div>,32,1400,test,,,,,,,,,,,-1,-1,500,0,fixation,poldrack-single-stim,100,167943,0.0-6.0-40.0,go_nogo_deval,424,,<div class = centerbox><div class = fixation>+</div></div>,none,500,test,,,,,,,,,,,388,32,850,0,stim,go1,101,168795,0.0-6.0-41.0,go_nogo_deval,424,,<img class = center src='/static/experiments/go_nogo_deval/images/purple_pentagon.png'></img>,32,850,test,purple_pentagon,32,13,0,,,,,,,-1,-1,1400,0,stim,poldrack-single-stim,102,170197,0.0-6.0-42.0,go_nogo_deval,424,,<div></div>,32,1400,test,,,,,,,,,,,-1,-1,500,0,fixation,poldrack-single-stim,103,170698,0.0-6.0-43.0,go_nogo_deval,424,,<div class = centerbox><div class = fixation>+</div></div>,none,500,test,,,,,,,,,,,379,32,850,0,stim,go1,104,171550,0.0-6.0-44.0,go_nogo_deval,424,,<img class = center src='/static/experiments/go_nogo_deval/images/purple_pentagon.png'></img>,32,850,test,purple_pentagon,32,14,0,,,,,,,-1,-1,1400,0,stim,poldrack-single-stim,105,172952,0.0-6.0-45.0,go_nogo_deval,424,,<div></div>,32,1400,test,,,,,,,,,,,-1,-1,500,0,fixation,poldrack-single-stim,106,173454,0.0-6.0-46.0,go_nogo_deval,424,,<div class = centerbox><div class = fixation>+</div></div>,none,500,test,,,,,,,,,,,459,32,850,0,stim,go1,107,174306,0.0-6.0-47.0,go_nogo_deval,424,,<img class = center src='/static/experiments/go_nogo_deval/images/purple_pentagon.png'></img>,32,850,test,purple_pentagon,32,15,0,,,,,,,-1,-1,1400,0,stim,poldrack-single-stim,108,175708,0.0-6.0-48.0,go_nogo_deval,424,,<div></div>,32,1400,test,,,,,,,,,,,-1,-1,500,0,fixation,poldrack-single-stim,109,176210,0.0-6.0-49.0,go_nogo_deval,424,,<div class = centerbox><div class = fixation>+</div></div>,none,500,test,,,,,,,,,,,-1,-1,850,0,stim,nogo2,110,177061,0.0-6.0-50.0,go_nogo_deval,424,,<img class = center src='/static/experiments/go_nogo_deval/images/blue_circle.png'></img>,32,850,test,blue_circle,-1,16,0,,,,,,,-1,-1,1400,0,stim,poldrack-single-stim,111,178462,0.0-6.0-51.0,go_nogo_deval,424,,<div></div>,32,1400,test,,,,,,,,,,,-1,-1,500,0,fixation,poldrack-single-stim,112,178963,0.0-6.0-52.0,go_nogo_deval,424,,<div class = centerbox><div class = fixation>+</div></div>,none,500,test,,,,,,,,,,,337,32,850,0,stim,go1,113,179814,0.0-6.0-53.0,go_nogo_deval,424,,<img class = center src='/static/experiments/go_nogo_deval/images/purple_pentagon.png'></img>,32,850,test,purple_pentagon,32,17,0,,,,,,,-1,-1,1400,0,stim,poldrack-single-stim,114,181215,0.0-6.0-54.0,go_nogo_deval,424,,<div></div>,32,1400,test,,,,,,,,,,,-1,-1,500,0,fixation,poldrack-single-stim,115,181717,0.0-6.0-55.0,go_nogo_deval,424,,<div class = centerbox><div class = fixation>+</div></div>,none,500,test,,,,,,,,,,,486,32,850,0,stim,go2,116,182569,0.0-6.0-56.0,go_nogo_deval,424,,<img class = center src='/static/experiments/go_nogo_deval/images/green_rhombus.png'></img>,32,850,test,green_rhombus,32,18,0,,,,,,,-1,-1,1400,0,stim,poldrack-single-stim,117,183970,0.0-6.0-57.0,go_nogo_deval,424,,<div></div>,32,1400,test,,,,,,,,,,,-1,-1,500,0,fixation,poldrack-single-stim,118,184472,0.0-6.0-58.0,go_nogo_deval,424,,<div class = centerbox><div class = fixation>+</div></div>,none,500,test,,,,,,,,,,,442,32,850,0,stim,go2,119,185323,0.0-6.0-59.0,go_nogo_deval,424,,<img class = center src='/static/experiments/go_nogo_deval/images/green_rhombus.png'></img>,32,850,test,green_rhombus,32,19,0,,,,,,,-1,-1,1400,0,stim,poldrack-single-stim,120,186725,0.0-6.0-60.0,go_nogo_deval,424,,<div></div>,32,1400,test,,,,,,,,,,,-1,-1,500,0,fixation,poldrack-single-stim,121,187226,0.0-6.0-61.0,go_nogo_deval,424,,<div class = centerbox><div class = fixation>+</div></div>,none,500,test,,,,,,,,,,,434,32,850,0,stim,go2,122,188078,0.0-6.0-62.0,go_nogo_deval,424,,<img class = center src='/static/experiments/go_nogo_deval/images/green_rhombus.png'></img>,32,850,test,green_rhombus,32,20,0,,,,,,,-1,-1,1400,0,stim,poldrack-single-stim,123,189479,0.0-6.0-63.0,go_nogo_deval,424,,<div></div>,32,1400,test,,,,,,,,,,,-1,-1,500,0,fixation,poldrack-single-stim,124,189981,0.0-6.0-64.0,go_nogo_deval,424,,<div class = centerbox><div class = fixation>+</div></div>,none,500,test,,,,,,,,,,,-1,-1,850,0,stim,nogo1,125,190832,0.0-6.0-65.0,go_nogo_deval,424,,<img class = center src='/static/experiments/go_nogo_deval/images/red_triangle.png'></img>,32,850,test,red_triangle,-1,21,0,,,,,,,-1,-1,1400,0,stim,poldrack-single-stim,126,192233,0.0-6.0-66.0,go_nogo_deval,424,,<div></div>,32,1400,test,,,,,,,,,,,-1,-1,500,0,fixation,poldrack-single-stim,127,192735,0.0-6.0-67.0,go_nogo_deval,424,,<div class = centerbox><div class = fixation>+</div></div>,none,500,test,,,,,,,,,,,-1,-1,850,0,stim,nogo2,128,193587,0.0-6.0-68.0,go_nogo_deval,424,,<img class = center src='/static/experiments/go_nogo_deval/images/blue_circle.png'></img>,32,850,test,blue_circle,-1,22,0,,,,,,,-1,-1,1400,0,stim,poldrack-single-stim,129,194988,0.0-6.0-69.0,go_nogo_deval,424,,<div></div>,32,1400,test,,,,,,,,,,,-1,-1,500,0,fixation,poldrack-single-stim,130,195490,0.0-6.0-70.0,go_nogo_deval,424,,<div class = centerbox><div class = fixation>+</div></div>,none,500,test,,,,,,,,,,,349,32,850,0,stim,go1,131,196342,0.0-6.0-71.0,go_nogo_deval,424,,<img class = center src='/static/experiments/go_nogo_deval/images/purple_pentagon.png'></img>,32,850,test,purple_pentagon,32,23,0,,,,,,,-1,-1,1400,0,stim,poldrack-single-stim,132,197744,0.0-6.0-72.0,go_nogo_deval,424,,<div></div>,32,1400,test,,,,,,,,,,,-1,-1,500,0,fixation,poldrack-single-stim,133,198247,0.0-6.0-73.0,go_nogo_deval,424,,<div class = centerbox><div class = fixation>+</div></div>,none,500,test,,,,,,,,,,,506,32,850,0,stim,go2,134,199098,0.0-6.0-74.0,go_nogo_deval,424,,<img class = center src='/static/experiments/go_nogo_deval/images/green_rhombus.png'></img>,32,850,test,green_rhombus,32,24,0,,,,,,,-1,-1,1400,0,stim,poldrack-single-stim,135,200499,0.0-6.0-75.0,go_nogo_deval,424,,<div></div>,32,1400,test,,,,,,,,,,,-1,-1,500,0,fixation,poldrack-single-stim,136,201001,0.0-6.0-76.0,go_nogo_deval,424,,<div class = centerbox><div class = fixation>+</div></div>,none,500,test,,,,,,,,,,,452,32,850,0,stim,go1,137,201853,0.0-6.0-77.0,go_nogo_deval,424,,<img class = center src='/static/experiments/go_nogo_deval/images/purple_pentagon.png'></img>,32,850,test,purple_pentagon,32,25,0,,,,,,,-1,-1,1400,0,stim,poldrack-single-stim,138,203254,0.0-6.0-78.0,go_nogo_deval,424,,<div></div>,32,1400,test,,,,,,,,,,,-1,-1,500,0,fixation,poldrack-single-stim,139,203756,0.0-6.0-79.0,go_nogo_deval,424,,<div class = centerbox><div class = fixation>+</div></div>,none,500,test,,,,,,,,,,,509,32,850,0,stim,go1,140,204608,0.0-6.0-80.0,go_nogo_deval,424,,<img class = center src='/static/experiments/go_nogo_deval/images/purple_pentagon.png'></img>,32,850,test,purple_pentagon,32,26,0,,,,,,,-1,-1,1400,0,stim,poldrack-single-stim,141,206010,0.0-6.0-81.0,go_nogo_deval,424,,<div></div>,32,1400,test,,,,,,,,,,,-1,-1,500,0,fixation,poldrack-single-stim,142,206511,0.0-6.0-82.0,go_nogo_deval,424,,<div class = centerbox><div class = fixation>+</div></div>,none,500,test,,,,,,,,,,,567,32,850,0,stim,go2,143,207363,0.0-6.0-83.0,go_nogo_deval,424,,<img class = center src='/static/experiments/go_nogo_deval/images/green_rhombus.png'></img>,32,850,test,green_rhombus,32,27,0,,,,,,,-1,-1,1400,0,stim,poldrack-single-stim,144,208765,0.0-6.0-84.0,go_nogo_deval,424,,<div></div>,32,1400,test,,,,,,,,,,,-1,-1,500,0,fixation,poldrack-single-stim,145,209266,0.0-6.0-85.0,go_nogo_deval,424,,<div class = centerbox><div class = fixation>+</div></div>,none,500,test,,,,,,,,,,,432,32,850,0,stim,go1,146,210117,0.0-6.0-86.0,go_nogo_deval,424,,<img class = center src='/static/experiments/go_nogo_deval/images/purple_pentagon.png'></img>,32,850,test,purple_pentagon,32,28,0,,,,,,,-1,-1,1400,0,stim,poldrack-single-stim,147,211519,0.0-6.0-87.0,go_nogo_deval,424,,<div></div>,32,1400,test,,,,,,,,,,,-1,-1,500,0,fixation,poldrack-single-stim,148,212021,0.0-6.0-88.0,go_nogo_deval,424,,<div class = centerbox><div class = fixation>+</div></div>,none,500,test,,,,,,,,,,,513,32,850,0,stim,go2,149,212872,0.0-6.0-89.0,go_nogo_deval,424,,<img class = center src='/static/experiments/go_nogo_deval/images/green_rhombus.png'></img>,32,850,test,green_rhombus,32,29,0,,,,,,,-1,-1,1400,0,stim,poldrack-single-stim,150,214275,0.0-6.0-90.0,go_nogo_deval,424,,<div></div>,32,1400,test,,,,,,,,,,,-1,-1,500,0,fixation,poldrack-single-stim,151,214777,0.0-6.0-91.0,go_nogo_deval,424,,<div class = centerbox><div class = fixation>+</div></div>,none,500,test,,,,,,,,,,,-1,-1,850,0,stim,nogo1,152,215628,0.0-6.0-92.0,go_nogo_deval,424,,<img class = center src='/static/experiments/go_nogo_deval/images/red_triangle.png'></img>,32,850,test,red_triangle,-1,30,0,,,,,,,-1,-1,1400,0,stim,poldrack-single-stim,153,217030,0.0-6.0-93.0,go_nogo_deval,424,,<div></div>,32,1400,test,,,,,,,,,,,-1,-1,500,0,fixation,poldrack-single-stim,154,217531,0.0-6.0-94.0,go_nogo_deval,424,,<div class = centerbox><div class = fixation>+</div></div>,none,500,test,,,,,,,,,,,392,32,850,0,stim,go1,155,218383,0.0-6.0-95.0,go_nogo_deval,424,,<img class = center src='/static/experiments/go_nogo_deval/images/purple_pentagon.png'></img>,32,850,test,purple_pentagon,32,31,0,,,,,,,-1,-1,1400,0,stim,poldrack-single-stim,156,219785,0.0-6.0-96.0,go_nogo_deval,424,,<div></div>,32,1400,test,,,,,,,,,,,-1,-1,500,0,fixation,poldrack-single-stim,157,220286,0.0-6.0-97.0,go_nogo_deval,424,,<div class = centerbox><div class = fixation>+</div></div>,none,500,test,,,,,,,,,,,-1,-1,850,0,stim,nogo1,158,221138,0.0-6.0-98.0,go_nogo_deval,424,,<img class = center src='/static/experiments/go_nogo_deval/images/red_triangle.png'></img>,32,850,test,red_triangle,-1,32,0,,,,,,,-1,-1,1400,0,stim,poldrack-single-stim,159,222539,0.0-6.0-99.0,go_nogo_deval,424,,<div></div>,32,1400,test,,,,,,,,,,,-1,-1,500,0,fixation,poldrack-single-stim,160,223041,0.0-6.0-100.0,go_nogo_deval,424,,<div class = centerbox><div class = fixation>+</div></div>,none,500,test,,,,,,,,,,,338,32,850,0,stim,go2,161,223893,0.0-6.0-101.0,go_nogo_deval,424,,<img class = center src='/static/experiments/go_nogo_deval/images/green_rhombus.png'></img>,32,850,test,green_rhombus,32,33,0,,,,,,,-1,-1,1400,0,stim,poldrack-single-stim,162,225295,0.0-6.0-102.0,go_nogo_deval,424,,<div></div>,32,1400,test,,,,,,,,,,,-1,-1,500,0,fixation,poldrack-single-stim,163,225796,0.0-6.0-103.0,go_nogo_deval,424,,<div class = centerbox><div class = fixation>+</div></div>,none,500,test,,,,,,,,,,,-1,-1,850,0,stim,nogo2,164,226648,0.0-6.0-104.0,go_nogo_deval,424,,<img class = center src='/static/experiments/go_nogo_deval/images/blue_circle.png'></img>,32,850,test,blue_circle,-1,34,0,,,,,,,-1,-1,1400,0,stim,poldrack-single-stim,165,228050,0.0-6.0-105.0,go_nogo_deval,424,,<div></div>,32,1400,test,,,,,,,,,,,-1,-1,500,0,fixation,poldrack-single-stim,166,228551,0.0-6.0-106.0,go_nogo_deval,424,,<div class = centerbox><div class = fixation>+</div></div>,none,500,test,,,,,,,,,,,498,32,850,0,stim,go2,167,229403,0.0-6.0-107.0,go_nogo_deval,424,,<img class = center src='/static/experiments/go_nogo_deval/images/green_rhombus.png'></img>,32,850,test,green_rhombus,32,35,0,,,,,,,-1,-1,1400,0,stim,poldrack-single-stim,168,230804,0.0-6.0-108.0,go_nogo_deval,424,,<div></div>,32,1400,test,,,,,,,,,,,-1,-1,500,0,fixation,poldrack-single-stim,169,231306,0.0-6.0-109.0,go_nogo_deval,424,,<div class = centerbox><div class = fixation>+</div></div>,none,500,test,,,,,,,,,,,-1,-1,850,0,stim,nogo2,170,232158,0.0-6.0-110.0,go_nogo_deval,424,,<img class = center src='/static/experiments/go_nogo_deval/images/blue_circle.png'></img>,32,850,test,blue_circle,-1,36,0,,,,,,,-1,-1,1400,0,stim,poldrack-single-stim,171,233560,0.0-6.0-111.0,go_nogo_deval,424,,<div></div>,32,1400,test,,,,,,,,,,,-1,-1,500,0,fixation,poldrack-single-stim,172,234061,0.0-6.0-112.0,go_nogo_deval,424,,<div class = centerbox><div class = fixation>+</div></div>,none,500,test,,,,,,,,,,,-1,-1,850,0,stim,nogo1,173,234913,0.0-6.0-113.0,go_nogo_deval,424,,<img class = center src='/static/experiments/go_nogo_deval/images/red_triangle.png'></img>,32,850,test,red_triangle,-1,37,0,,,,,,,-1,-1,1400,0,stim,poldrack-single-stim,174,236314,0.0-6.0-114.0,go_nogo_deval,424,,<div></div>,32,1400,test,,,,,,,,,,,-1,-1,500,0,fixation,poldrack-single-stim,175,236815,0.0-6.0-115.0,go_nogo_deval,424,,<div class = centerbox><div class = fixation>+</div></div>,none,500,test,,,,,,,,,,,402,32,850,0,stim,go1,176,237667,0.0-6.0-116.0,go_nogo_deval,424,,<img class = center src='/static/experiments/go_nogo_deval/images/purple_pentagon.png'></img>,32,850,test,purple_pentagon,32,38,0,,,,,,,-1,-1,1400,0,stim,poldrack-single-stim,177,239068,0.0-6.0-117.0,go_nogo_deval,424,,<div></div>,32,1400,test,,,,,,,,,,,-1,-1,500,0,fixation,poldrack-single-stim,178,239569,0.0-6.0-118.0,go_nogo_deval,424,,<div class = centerbox><div class = fixation>+</div></div>,none,500,test,,,,,,,,,,,336,32,850,0,stim,go1,179,240421,0.0-6.0-119.0,go_nogo_deval,424,,<img class = center src='/static/experiments/go_nogo_deval/images/purple_pentagon.png'></img>,32,850,test,purple_pentagon,32,39,0,,,,,,,-1,-1,1400,0,stim,poldrack-single-stim,180,241823,0.0-6.0-120.0,go_nogo_deval,424,,<div></div>,32,1400,test,,,,,,,,,,,-1,-1,500,0,fixation,poldrack-single-stim,181,242325,0.0-6.0-121.0,go_nogo_deval,424,,<div class = centerbox><div class = fixation>+</div></div>,none,500,test,,,,,,,,,,,528,32,850,0,stim,go2,182,243177,0.0-6.0-122.0,go_nogo_deval,424,,<img class = center src='/static/experiments/go_nogo_deval/images/green_rhombus.png'></img>,32,850,test,green_rhombus,32,40,0,,,,,,,-1,-1,1400,0,stim,poldrack-single-stim,183,244578,0.0-6.0-123.0,go_nogo_deval,424,,<div></div>,32,1400,test,,,,,,,,,,,-1,-1,500,0,fixation,poldrack-single-stim,184,245079,0.0-6.0-124.0,go_nogo_deval,424,,<div class = centerbox><div class = fixation>+</div></div>,none,500,test,,,,,,,,,,,395,32,850,0,stim,go1,185,245930,0.0-6.0-125.0,go_nogo_deval,424,,<img class = center src='/static/experiments/go_nogo_deval/images/purple_pentagon.png'></img>,32,850,test,purple_pentagon,32,41,0,,,,,,,-1,-1,1400,0,stim,poldrack-single-stim,186,247331,0.0-6.0-126.0,go_nogo_deval,424,,<div></div>,32,1400,test,,,,,,,,,,,-1,-1,500,0,fixation,poldrack-single-stim,187,247833,0.0-6.0-127.0,go_nogo_deval,424,,<div class = centerbox><div class = fixation>+</div></div>,none,500,test,,,,,,,,,,,454,32,850,0,stim,go2,188,248684,0.0-6.0-128.0,go_nogo_deval,424,,<img class = center src='/static/experiments/go_nogo_deval/images/green_rhombus.png'></img>,32,850,test,green_rhombus,32,42,0,,,,,,,-1,-1,1400,0,stim,poldrack-single-stim,189,250085,0.0-6.0-129.0,go_nogo_deval,424,,<div></div>,32,1400,test,,,,,,,,,,,-1,-1,500,0,fixation,poldrack-single-stim,190,250586,0.0-6.0-130.0,go_nogo_deval,424,,<div class = centerbox><div class = fixation>+</div></div>,none,500,test,,,,,,,,,,,-1,-1,850,0,stim,nogo1,191,251438,0.0-6.0-131.0,go_nogo_deval,424,,<img class = center src='/static/experiments/go_nogo_deval/images/red_triangle.png'></img>,32,850,test,red_triangle,-1,43,0,,,,,,,-1,-1,1400,0,stim,poldrack-single-stim,192,252839,0.0-6.0-132.0,go_nogo_deval,424,,<div></div>,32,1400,test,,,,,,,,,,,-1,-1,500,0,fixation,poldrack-single-stim,193,253340,0.0-6.0-133.0,go_nogo_deval,424,,<div class = centerbox><div class = fixation>+</div></div>,none,500,test,,,,,,,,,,,335,32,850,0,stim,go1,194,254192,0.0-6.0-134.0,go_nogo_deval,424,,<img class = center src='/static/experiments/go_nogo_deval/images/purple_pentagon.png'></img>,32,850,test,purple_pentagon,32,44,0,,,,,,,-1,-1,1400,0,stim,poldrack-single-stim,195,255594,0.0-6.0-135.0,go_nogo_deval,424,,<div></div>,32,1400,test,,,,,,,,,,,-1,-1,500,0,fixation,poldrack-single-stim,196,256096,0.0-6.0-136.0,go_nogo_deval,424,,<div class = centerbox><div class = fixation>+</div></div>,none,500,test,,,,,,,,,,,370,32,850,0,stim,go1,197,256947,0.0-6.0-137.0,go_nogo_deval,424,,<img class = center src='/static/experiments/go_nogo_deval/images/purple_pentagon.png'></img>,32,850,test,purple_pentagon,32,45,0,,,,,,,-1,-1,1400,0,stim,poldrack-single-stim,198,258349,0.0-6.0-138.0,go_nogo_deval,424,,<div></div>,32,1400,test,,,,,,,,,,,-1,-1,500,0,fixation,poldrack-single-stim,199,258851,0.0-6.0-139.0,go_nogo_deval,424,,<div class = centerbox><div class = fixation>+</div></div>,none,500,test,,,,,,,,,,,337,32,850,0,stim,go2,200,259702,0.0-6.0-140.0,go_nogo_deval,424,,<img class = center src='/static/experiments/go_nogo_deval/images/green_rhombus.png'></img>,32,850,test,green_rhombus,32,46,0,,,,,,,-1,-1,1400,0,stim,poldrack-single-stim,201,261104,0.0-6.0-141.0,go_nogo_deval,424,,<div></div>,32,1400,test,,,,,,,,,,,-1,-1,500,0,fixation,poldrack-single-stim,202,261605,0.0-6.0-142.0,go_nogo_deval,424,,<div class = centerbox><div class = fixation>+</div></div>,none,500,test,,,,,,,,,,,362,32,850,0,stim,go2,203,262456,0.0-6.0-143.0,go_nogo_deval,424,,<img class = center src='/static/experiments/go_nogo_deval/images/green_rhombus.png'></img>,32,850,test,green_rhombus,32,47,0,,,,,,,-1,-1,1400,0,stim,poldrack-single-stim,204,263858,0.0-6.0-144.0,go_nogo_deval,424,,<div></div>,32,1400,test,,,,,,,,,,,6477,13,6477,0,practice-no-stop-feedback,poldrack-single-stim,205,270338,0.0-6.1-0.1,go_nogo_deval,424,,<div class = centerbox><p class = block-text><br>Please take this time to read your feedback and to take a short break! Press enter to continue</p><p class = block-text><strong>Average reaction time:  423 ms. Accuracy: 50%</strong></p></div>,13,6477,,,,,,,,,,,,-1,-1,500,0,fixation,poldrack-single-stim,206,270839,0.0-6.1-1.1,go_nogo_deval,424,,<div class = centerbox><div class = fixation>+</div></div>,none,500,test,,,,,,,,,,,578,32,850,0,stim,go1,207,271691,0.0-6.1-2.1,go_nogo_deval,424,,<img class = center src='/static/experiments/go_nogo_deval/images/purple_pentagon.png'></img>,32,850,test,purple_pentagon,32,0,1,,,,,,,-1,-1,1400,0,stim,poldrack-single-stim,208,273092,0.0-6.1-3.1,go_nogo_deval,424,,<div></div>,32,1400,test,,,,,,,,,,,-1,-1,500,0,fixation,poldrack-single-stim,209,273594,0.0-6.1-4.1,go_nogo_deval,424,,<div class = centerbox><div class = fixation>+</div></div>,none,500,test,,,,,,,,,,,-1,-1,850,0,stim,nogo2,210,274446,0.0-6.1-5.1,go_nogo_deval,424,,<img class = center src='/static/experiments/go_nogo_deval/images/blue_circle.png'></img>,32,850,test,blue_circle,-1,1,1,,,,,,,-1,-1,1400,0,stim,poldrack-single-stim,211,275848,0.0-6.1-6.1,go_nogo_deval,424,,<div></div>,32,1400,test,,,,,,,,,,,-1,-1,500,0,fixation,poldrack-single-stim,212,276349,0.0-6.1-7.1,go_nogo_deval,424,,<div class = centerbox><div class = fixation>+</div></div>,none,500,test,,,,,,,,,,,366,32,850,0,stim,go2,213,277200,0.0-6.1-8.1,go_nogo_deval,424,,<img class = center src='/static/experiments/go_nogo_deval/images/green_rhombus.png'></img>,32,850,test,green_rhombus,32,2,1,,,,,,,-1,-1,1400,0,stim,poldrack-single-stim,214,278602,0.0-6.1-9.1,go_nogo_deval,424,,<div></div>,32,1400,test,,,,,,,,,,,-1,-1,500,0,fixation,poldrack-single-stim,215,279103,0.0-6.1-10.1,go_nogo_deval,424,,<div class = centerbox><div class = fixation>+</div></div>,none,500,test,,,,,,,,,,,-1,-1,850,0,stim,nogo2,216,279954,0.0-6.1-11.1,go_nogo_deval,424,,<img class = center src='/static/experiments/go_nogo_deval/images/blue_circle.png'></img>,32,850,test,blue_circle,-1,3,1,,,,,,,-1,-1,1400,0,stim,poldrack-single-stim,217,281356,0.0-6.1-12.1,go_nogo_deval,424,,<div></div>,32,1400,test,,,,,,,,,,,-1,-1,500,0,fixation,poldrack-single-stim,218,281858,0.0-6.1-13.1,go_nogo_deval,424,,<div class = centerbox><div class = fixation>+</div></div>,none,500,test,,,,,,,,,,,-1,-1,850,0,stim,nogo2,219,282709,0.0-6.1-14.1,go_nogo_deval,424,,<img class = center src='/static/experiments/go_nogo_deval/images/blue_circle.png'></img>,32,850,test,blue_circle,-1,4,1,,,,,,,-1,-1,1400,0,stim,poldrack-single-stim,220,284111,0.0-6.1-15.1,go_nogo_deval,424,,<div></div>,32,1400,test,,,,,,,,,,,-1,-1,500,0,fixation,poldrack-single-stim,221,284612,0.0-6.1-16.1,go_nogo_deval,424,,<div class = centerbox><div class = fixation>+</div></div>,none,500,test,,,,,,,,,,,406,32,850,0,stim,go1,222,285464,0.0-6.1-17.1,go_nogo_deval,424,,<img class = center src='/static/experiments/go_nogo_deval/images/purple_pentagon.png'></img>,32,850,test,purple_pentagon,32,5,1,,,,,,,-1,-1,1400,0,stim,poldrack-single-stim,223,286865,0.0-6.1-18.1,go_nogo_deval,424,,<div></div>,32,1400,test,,,,,,,,,,,-1,-1,500,0,fixation,poldrack-single-stim,224,287366,0.0-6.1-19.1,go_nogo_deval,424,,<div class = centerbox><div class = fixation>+</div></div>,none,500,test,,,,,,,,,,,398,32,850,0,stim,go1,225,288218,0.0-6.1-20.1,go_nogo_deval,424,,<img class = center src='/static/experiments/go_nogo_deval/images/purple_pentagon.png'></img>,32,850,test,purple_pentagon,32,6,1,,,,,,,-1,-1,1400,0,stim,poldrack-single-stim,226,289619,0.0-6.1-21.1,go_nogo_deval,424,,<div></div>,32,1400,test,,,,,,,,,,,-1,-1,500,0,fixation,poldrack-single-stim,227,290121,0.0-6.1-22.1,go_nogo_deval,424,,<div class = centerbox><div class = fixation>+</div></div>,none,500,test,,,,,,,,,,,488,32,850,0,stim,go2,228,290973,0.0-6.1-23.1,go_nogo_deval,424,,<img class = center src='/static/experiments/go_nogo_deval/images/green_rhombus.png'></img>,32,850,test,green_rhombus,32,7,1,,,,,,,-1,-1,1400,0,stim,poldrack-single-stim,229,292374,0.0-6.1-24.1,go_nogo_deval,424,,<div></div>,32,1400,test,,,,,,,,,,,-1,-1,500,0,fixation,poldrack-single-stim,230,292876,0.0-6.1-25.1,go_nogo_deval,424,,<div class = centerbox><div class = fixation>+</div></div>,none,500,test,,,,,,,,,,,378,32,850,0,stim,go2,231,293727,0.0-6.1-26.1,go_nogo_deval,424,,<img class = center src='/static/experiments/go_nogo_deval/images/green_rhombus.png'></img>,32,850,test,green_rhombus,32,8,1,,,,,,,-1,-1,1400,0,stim,poldrack-single-stim,232,295128,0.0-6.1-27.1,go_nogo_deval,424,,<div></div>,32,1400,test,,,,,,,,,,,-1,-1,500,0,fixation,poldrack-single-stim,233,295630,0.0-6.1-28.1,go_nogo_deval,424,,<div class = centerbox><div class = fixation>+</div></div>,none,500,test,,,,,,,,,,,379,32,850,0,stim,go1,234,296481,0.0-6.1-29.1,go_nogo_deval,424,,<img class = center src='/static/experiments/go_nogo_deval/images/purple_pentagon.png'></img>,32,850,test,purple_pentagon,32,9,1,,,,,,,-1,-1,1400,0,stim,poldrack-single-stim,235,297883,0.0-6.1-30.1,go_nogo_deval,424,,<div></div>,32,1400,test,,,,,,,,,,,-1,-1,500,0,fixation,poldrack-single-stim,236,298385,0.0-6.1-31.1,go_nogo_deval,424,,<div class = centerbox><div class = fixation>+</div></div>,none,500,test,,,,,,,,,,,325,32,850,0,stim,go1,237,299235,0.0-6.1-32.1,go_nogo_deval,424,,<img class = center src='/static/experiments/go_nogo_deval/images/purple_pentagon.png'></img>,32,850,test,purple_pentagon,32,10,1,,,,,,,-1,-1,1400,0,stim,poldrack-single-stim,238,300637,0.0-6.1-33.1,go_nogo_deval,424,,<div></div>,32,1400,test,,,,,,,,,,,-1,-1,500,0,fixation,poldrack-single-stim,239,301139,0.0-6.1-34.1,go_nogo_deval,424,,<div class = centerbox><div class = fixation>+</div></div>,none,500,test,,,,,,,,,,,361,32,850,0,stim,go2,240,301991,0.0-6.1-35.1,go_nogo_deval,424,,<img class = center src='/static/experiments/go_nogo_deval/images/green_rhombus.png'></img>,32,850,test,green_rhombus,32,11,1,,,,,,,-1,-1,1400,0,stim,poldrack-single-stim,241,303392,0.0-6.1-36.1,go_nogo_deval,424,,<div></div>,32,1400,test,,,,,,,,,,,-1,-1,500,0,fixation,poldrack-single-stim,242,303893,0.0-6.1-37.1,go_nogo_deval,424,,<div class = centerbox><div class = fixation>+</div></div>,none,500,test,,,,,,,,,,,-1,-1,850,0,stim,nogo1,243,304744,0.0-6.1-38.1,go_nogo_deval,424,,<img class = center src='/static/experiments/go_nogo_deval/images/red_triangle.png'></img>,32,850,test,red_triangle,-1,12,1,,,,,,,-1,-1,1400,0,stim,poldrack-single-stim,244,306146,0.0-6.1-39.1,go_nogo_deval,424,,<div></div>,32,1400,test,,,,,,,,,,,-1,-1,500,0,fixation,poldrack-single-stim,245,306648,0.0-6.1-40.1,go_nogo_deval,424,,<div class = centerbox><div class = fixation>+</div></div>,none,500,test,,,,,,,,,,,331,32,850,0,stim,go1,246,307500,0.0-6.1-41.1,go_nogo_deval,424,,<img class = center src='/static/experiments/go_nogo_deval/images/purple_pentagon.png'></img>,32,850,test,purple_pentagon,32,13,1,,,,,,,-1,-1,1400,0,stim,poldrack-single-stim,247,308901,0.0-6.1-42.1,go_nogo_deval,424,,<div></div>,32,1400,test,,,,,,,,,,,-1,-1,500,0,fixation,poldrack-single-stim,248,309403,0.0-6.1-43.1,go_nogo_deval,424,,<div class = centerbox><div class = fixation>+</div></div>,none,500,test,,,,,,,,,,,388,32,850,0,stim,go2,249,310255,0.0-6.1-44.1,go_nogo_deval,424,,<img class = center src='/static/experiments/go_nogo_deval/images/green_rhombus.png'></img>,32,850,test,green_rhombus,32,14,1,,,,,,,-1,-1,1400,0,stim,poldrack-single-stim,250,311657,0.0-6.1-45.1,go_nogo_deval,424,,<div></div>,32,1400,test,,,,,,,,,,,-1,-1,500,0,fixation,poldrack-single-stim,251,312158,0.0-6.1-46.1,go_nogo_deval,424,,<div class = centerbox><div class = fixation>+</div></div>,none,500,test,,,,,,,,,,,422,32,850,0,stim,go1,252,313010,0.0-6.1-47.1,go_nogo_deval,424,,<img class = center src='/static/experiments/go_nogo_deval/images/purple_pentagon.png'></img>,32,850,test,purple_pentagon,32,15,1,,,,,,,-1,-1,1400,0,stim,poldrack-single-stim,253,314412,0.0-6.1-48.1,go_nogo_deval,424,,<div></div>,32,1400,test,,,,,,,,,,,-1,-1,500,0,fixation,poldrack-single-stim,254,314914,0.0-6.1-49.1,go_nogo_deval,424,,<div class = centerbox><div class = fixation>+</div></div>,none,500,test,,,,,,,,,,,345,32,850,0,stim,go2,255,315765,0.0-6.1-50.1,go_nogo_deval,424,,<img class = center src='/static/experiments/go_nogo_deval/images/green_rhombus.png'></img>,32,850,test,green_rhombus,32,16,1,,,,,,,-1,-1,1400,0,stim,poldrack-single-stim,256,317166,0.0-6.1-51.1,go_nogo_deval,424,,<div></div>,32,1400,test,,,,,,,,,,,-1,-1,500,0,fixation,poldrack-single-stim,257,317668,0.0-6.1-52.1,go_nogo_deval,424,,<div class = centerbox><div class = fixation>+</div></div>,none,500,test,,,,,,,,,,,-1,-1,850,0,stim,nogo1,258,318519,0.0-6.1-53.1,go_nogo_deval,424,,<img class = center src='/static/experiments/go_nogo_deval/images/red_triangle.png'></img>,32,850,test,red_triangle,-1,17,1,,,,,,,-1,-1,1400,0,stim,poldrack-single-stim,259,319921,0.0-6.1-54.1,go_nogo_deval,424,,<div></div>,32,1400,test,,,,,,,,,,,-1,-1,500,0,fixation,poldrack-single-stim,260,320423,0.0-6.1-55.1,go_nogo_deval,424,,<div class = centerbox><div class = fixation>+</div></div>,none,500,test,,,,,,,,,,,326,32,850,0,stim,go1,261,321274,0.0-6.1-56.1,go_nogo_deval,424,,<img class = center src='/static/experiments/go_nogo_deval/images/purple_pentagon.png'></img>,32,850,test,purple_pentagon,32,18,1,,,,,,,-1,-1,1400,0,stim,poldrack-single-stim,262,322676,0.0-6.1-57.1,go_nogo_deval,424,,<div></div>,32,1400,test,,,,,,,,,,,-1,-1,500,0,fixation,poldrack-single-stim,263,323177,0.0-6.1-58.1,go_nogo_deval,424,,<div class = centerbox><div class = fixation>+</div></div>,none,500,test,,,,,,,,,,,-1,-1,850,0,stim,nogo1,264,324029,0.0-6.1-59.1,go_nogo_deval,424,,<img class = center src='/static/experiments/go_nogo_deval/images/red_triangle.png'></img>,32,850,test,red_triangle,-1,19,1,,,,,,,-1,-1,1400,0,stim,poldrack-single-stim,265,325431,0.0-6.1-60.1,go_nogo_deval,424,,<div></div>,32,1400,test,,,,,,,,,,,-1,-1,500,0,fixation,poldrack-single-stim,266,325932,0.0-6.1-61.1,go_nogo_deval,424,,<div class = centerbox><div class = fixation>+</div></div>,none,500,test,,,,,,,,,,,-1,-1,850,0,stim,nogo2,267,326784,0.0-6.1-62.1,go_nogo_deval,424,,<img class = center src='/static/experiments/go_nogo_deval/images/blue_circle.png'></img>,32,850,test,blue_circle,-1,20,1,,,,,,,-1,-1,1400,0,stim,poldrack-single-stim,268,328186,0.0-6.1-63.1,go_nogo_deval,424,,<div></div>,32,1400,test,,,,,,,,,,,-1,-1,500,0,fixation,poldrack-single-stim,269,328688,0.0-6.1-64.1,go_nogo_deval,424,,<div class = centerbox><div class = fixation>+</div></div>,none,500,test,,,,,,,,,,,544,32,850,0,stim,go2,270,329539,0.0-6.1-65.1,go_nogo_deval,424,,<img class = center src='/static/experiments/go_nogo_deval/images/green_rhombus.png'></img>,32,850,test,green_rhombus,32,21,1,,,,,,,-1,-1,1400,0,stim,poldrack-single-stim,271,330941,0.0-6.1-66.1,go_nogo_deval,424,,<div></div>,32,1400,test,,,,,,,,,,,-1,-1,500,0,fixation,poldrack-single-stim,272,331443,0.0-6.1-67.1,go_nogo_deval,424,,<div class = centerbox><div class = fixation>+</div></div>,none,500,test,,,,,,,,,,,-1,-1,850,0,stim,nogo1,273,332294,0.0-6.1-68.1,go_nogo_deval,424,,<img class = center src='/static/experiments/go_nogo_deval/images/red_triangle.png'></img>,32,850,test,red_triangle,-1,22,1,,,,,,,-1,-1,1400,0,stim,poldrack-single-stim,274,333695,0.0-6.1-69.1,go_nogo_deval,424,,<div></div>,32,1400,test,,,,,,,,,,,-1,-1,500,0,fixation,poldrack-single-stim,275,334197,0.0-6.1-70.1,go_nogo_deval,424,,<div class = centerbox><div class = fixation>+</div></div>,none,500,test,,,,,,,,,,,355,32,850,0,stim,go1,276,335049,0.0-6.1-71.1,go_nogo_deval,424,,<img class = center src='/static/experiments/go_nogo_deval/images/purple_pentagon.png'></img>,32,850,test,purple_pentagon,32,23,1,,,,,,,-1,-1,1400,0,stim,poldrack-single-stim,277,336451,0.0-6.1-72.1,go_nogo_deval,424,,<div></div>,32,1400,test,,,,,,,,,,,-1,-1,500,0,fixation,poldrack-single-stim,278,336953,0.0-6.1-73.1,go_nogo_deval,424,,<div class = centerbox><div class = fixation>+</div></div>,none,500,test,,,,,,,,,,,-1,-1,850,0,stim,nogo2,279,337805,0.0-6.1-74.1,go_nogo_deval,424,,<img class = center src='/static/experiments/go_nogo_deval/images/blue_circle.png'></img>,32,850,test,blue_circle,-1,24,1,,,,,,,-1,-1,1400,0,stim,poldrack-single-stim,280,339207,0.0-6.1-75.1,go_nogo_deval,424,,<div></div>,32,1400,test,,,,,,,,,,,-1,-1,500,0,fixation,poldrack-single-stim,281,339708,0.0-6.1-76.1,go_nogo_deval,424,,<div class = centerbox><div class = fixation>+</div></div>,none,500,test,,,,,,,,,,,-1,-1,850,0,stim,nogo1,282,340559,0.0-6.1-77.1,go_nogo_deval,424,,<img class = center src='/static/experiments/go_nogo_deval/images/red_triangle.png'></img>,32,850,test,red_triangle,-1,25,1,,,,,,,-1,-1,1400,0,stim,poldrack-single-stim,283,341961,0.0-6.1-78.1,go_nogo_deval,424,,<div></div>,32,1400,test,,,,,,,,,,,-1,-1,500,0,fixation,poldrack-single-stim,284,342463,0.0-6.1-79.1,go_nogo_deval,424,,<div class = centerbox><div class = fixation>+</div></div>,none,500,test,,,,,,,,,,,370,32,850,0,stim,go2,285,343315,0.0-6.1-80.1,go_nogo_deval,424,,<img class = center src='/static/experiments/go_nogo_deval/images/green_rhombus.png'></img>,32,850,test,green_rhombus,32,26,1,,,,,,,-1,-1,1400,0,stim,poldrack-single-stim,286,344715,0.0-6.1-81.1,go_nogo_deval,424,,<div></div>,32,1400,test,,,,,,,,,,,-1,-1,500,0,fixation,poldrack-single-stim,287,345217,0.0-6.1-82.1,go_nogo_deval,424,,<div class = centerbox><div class = fixation>+</div></div>,none,500,test,,,,,,,,,,,-1,-1,850,0,stim,nogo2,288,346068,0.0-6.1-83.1,go_nogo_deval,424,,<img class = center src='/static/experiments/go_nogo_deval/images/blue_circle.png'></img>,32,850,test,blue_circle,-1,27,1,,,,,,,-1,-1,1400,0,stim,poldrack-single-stim,289,347470,0.0-6.1-84.1,go_nogo_deval,424,,<div></div>,32,1400,test,,,,,,,,,,,-1,-1,500,0,fixation,poldrack-single-stim,290,347972,0.0-6.1-85.1,go_nogo_deval,424,,<div class = centerbox><div class = fixation>+</div></div>,none,500,test,,,,,,,,,,,385,32,850,0,stim,go1,291,348823,0.0-6.1-86.1,go_nogo_deval,424,,<img class = center src='/static/experiments/go_nogo_deval/images/purple_pentagon.png'></img>,32,850,test,purple_pentagon,32,28,1,,,,,,,-1,-1,1400,0,stim,poldrack-single-stim,292,350224,0.0-6.1-87.1,go_nogo_deval,424,,<div></div>,32,1400,test,,,,,,,,,,,-1,-1,500,0,fixation,poldrack-single-stim,293,350726,0.0-6.1-88.1,go_nogo_deval,424,,<div class = centerbox><div class = fixation>+</div></div>,none,500,test,,,,,,,,,,,533,32,850,0,stim,go2,294,351577,0.0-6.1-89.1,go_nogo_deval,424,,<img class = center src='/static/experiments/go_nogo_deval/images/green_rhombus.png'></img>,32,850,test,green_rhombus,32,29,1,,,,,,,-1,-1,1400,0,stim,poldrack-single-stim,295,352978,0.0-6.1-90.1,go_nogo_deval,424,,<div></div>,32,1400,test,,,,,,,,,,,-1,-1,500,0,fixation,poldrack-single-stim,296,353480,0.0-6.1-91.1,go_nogo_deval,424,,<div class = centerbox><div class = fixation>+</div></div>,none,500,test,,,,,,,,,,,366,32,850,0,stim,go2,297,354332,0.0-6.1-92.1,go_nogo_deval,424,,<img class = center src='/static/experiments/go_nogo_deval/images/green_rhombus.png'></img>,32,850,test,green_rhombus,32,30,1,,,,,,,-1,-1,1400,0,stim,poldrack-single-stim,298,355733,0.0-6.1-93.1,go_nogo_deval,424,,<div></div>,32,1400,test,,,,,,,,,,,-1,-1,500,0,fixation,poldrack-single-stim,299,356235,0.0-6.1-94.1,go_nogo_deval,424,,<div class = centerbox><div class = fixation>+</div></div>,none,500,test,,,,,,,,,,,-1,-1,850,0,stim,nogo1,300,357086,0.0-6.1-95.1,go_nogo_deval,424,,<img class = center src='/static/experiments/go_nogo_deval/images/red_triangle.png'></img>,32,850,test,red_triangle,-1,31,1,,,,,,,-1,-1,1400,0,stim,poldrack-single-stim,301,358487,0.0-6.1-96.1,go_nogo_deval,424,,<div></div>,32,1400,test,,,,,,,,,,,-1,-1,500,0,fixation,poldrack-single-stim,302,358988,0.0-6.1-97.1,go_nogo_deval,424,,<div class = centerbox><div class = fixation>+</div></div>,none,500,test,,,,,,,,,,,383,32,850,0,stim,go1,303,359840,0.0-6.1-98.1,go_nogo_deval,424,,<img class = center src='/static/experiments/go_nogo_deval/images/purple_pentagon.png'></img>,32,850,test,purple_pentagon,32,32,1,,,,,,,-1,-1,1400,0,stim,poldrack-single-stim,304,361242,0.0-6.1-99.1,go_nogo_deval,424,,<div></div>,32,1400,test,,,,,,,,,,,-1,-1,500,0,fixation,poldrack-single-stim,305,361743,0.0-6.1-100.1,go_nogo_deval,424,,<div class = centerbox><div class = fixation>+</div></div>,none,500,test,,,,,,,,,,,-1,-1,850,0,stim,nogo2,306,362594,0.0-6.1-101.1,go_nogo_deval,424,,<img class = center src='/static/experiments/go_nogo_deval/images/blue_circle.png'></img>,32,850,test,blue_circle,-1,33,1,,,,,,,-1,-1,1400,0,stim,poldrack-single-stim,307,363996,0.0-6.1-102.1,go_nogo_deval,424,,<div></div>,32,1400,test,,,,,,,,,,,-1,-1,500,0,fixation,poldrack-single-stim,308,364498,0.0-6.1-103.1,go_nogo_deval,424,,<div class = centerbox><div class = fixation>+</div></div>,none,500,test,,,,,,,,,,,329,32,850,0,stim,go2,309,365350,0.0-6.1-104.1,go_nogo_deval,424,,<img class = center src='/static/experiments/go_nogo_deval/images/green_rhombus.png'></img>,32,850,test,green_rhombus,32,34,1,,,,,,,-1,-1,1400,0,stim,poldrack-single-stim,310,366752,0.0-6.1-105.1,go_nogo_deval,424,,<div></div>,32,1400,test,,,,,,,,,,,-1,-1,500,0,fixation,poldrack-single-stim,311,367253,0.0-6.1-106.1,go_nogo_deval,424,,<div class = centerbox><div class = fixation>+</div></div>,none,500,test,,,,,,,,,,,409,32,850,0,stim,go2,312,368104,0.0-6.1-107.1,go_nogo_deval,424,,<img class = center src='/static/experiments/go_nogo_deval/images/green_rhombus.png'></img>,32,850,test,green_rhombus,32,35,1,,,,,,,-1,-1,1400,0,stim,poldrack-single-stim,313,369506,0.0-6.1-108.1,go_nogo_deval,424,,<div></div>,32,1400,test,,,,,,,,,,,-1,-1,500,0,fixation,poldrack-single-stim,314,370008,0.0-6.1-109.1,go_nogo_deval,424,,<div class = centerbox><div class = fixation>+</div></div>,none,500,test,,,,,,,,,,,-1,-1,850,0,stim,nogo2,315,370860,0.0-6.1-110.1,go_nogo_deval,424,,<img class = center src='/static/experiments/go_nogo_deval/images/blue_circle.png'></img>,32,850,test,blue_circle,-1,36,1,,,,,,,-1,-1,1400,0,stim,poldrack-single-stim,316,372262,0.0-6.1-111.1,go_nogo_deval,424,,<div></div>,32,1400,test,,,,,,,,,,,-1,-1,500,0,fixation,poldrack-single-stim,317,372764,0.0-6.1-112.1,go_nogo_deval,424,,<div class = centerbox><div class = fixation>+</div></div>,none,500,test,,,,,,,,,,,377,32,850,0,stim,go2,318,373616,0.0-6.1-113.1,go_nogo_deval,424,,<img class = center src='/static/experiments/go_nogo_deval/images/green_rhombus.png'></img>,32,850,test,green_rhombus,32,37,1,,,,,,,-1,-1,1400,0,stim,poldrack-single-stim,319,375016,0.0-6.1-114.1,go_nogo_deval,424,,<div></div>,32,1400,test,,,,,,,,,,,-1,-1,500,0,fixation,poldrack-single-stim,320,375517,0.0-6.1-115.1,go_nogo_deval,424,,<div class = centerbox><div class = fixation>+</div></div>,none,500,test,,,,,,,,,,,357,32,850,0,stim,go2,321,376369,0.0-6.1-116.1,go_nogo_deval,424,,<img class = center src='/static/experiments/go_nogo_deval/images/green_rhombus.png'></img>,32,850,test,green_rhombus,32,38,1,,,,,,,-1,-1,1400,0,stim,poldrack-single-stim,322,377770,0.0-6.1-117.1,go_nogo_deval,424,,<div></div>,32,1400,test,,,,,,,,,,,-1,-1,500,0,fixation,poldrack-single-stim,323,378272,0.0-6.1-118.1,go_nogo_deval,424,,<div class = centerbox><div class = fixation>+</div></div>,none,500,test,,,,,,,,,,,346,32,850,0,stim,go1,324,379124,0.0-6.1-119.1,go_nogo_deval,424,,<img class = center src='/static/experiments/go_nogo_deval/images/purple_pentagon.png'></img>,32,850,test,purple_pentagon,32,39,1,,,,,,,-1,-1,1400,0,stim,poldrack-single-stim,325,380525,0.0-6.1-120.1,go_nogo_deval,424,,<div></div>,32,1400,test,,,,,,,,,,,-1,-1,500,0,fixation,poldrack-single-stim,326,381027,0.0-6.1-121.1,go_nogo_deval,424,,<div class = centerbox><div class = fixation>+</div></div>,none,500,test,,,,,,,,,,,338,32,850,0,stim,go1,327,381878,0.0-6.1-122.1,go_nogo_deval,424,,<img class = center src='/static/experiments/go_nogo_deval/images/purple_pentagon.png'></img>,32,850,test,purple_pentagon,32,40,1,,,,,,,-1,-1,1400,0,stim,poldrack-single-stim,328,383279,0.0-6.1-123.1,go_nogo_deval,424,,<div></div>,32,1400,test,,,,,,,,,,,-1,-1,500,0,fixation,poldrack-single-stim,329,383781,0.0-6.1-124.1,go_nogo_deval,424,,<div class = centerbox><div class = fixation>+</div></div>,none,500,test,,,,,,,,,,,328,32,850,0,stim,nogo1,330,384633,0.0-6.1-125.1,go_nogo_deval,424,,<img class = center src='/static/experiments/go_nogo_deval/images/red_triangle.png'></img>,32,850,test,red_triangle,-1,41,1,,,,,,,-1,-1,1400,0,stim,poldrack-single-stim,331,386035,0.0-6.1-126.1,go_nogo_deval,424,,<div></div>,32,1400,test,,,,,,,,,,,-1,-1,500,0,fixation,poldrack-single-stim,332,386537,0.0-6.1-127.1,go_nogo_deval,424,,<div class = centerbox><div class = fixation>+</div></div>,none,500,test,,,,,,,,,,,-1,-1,850,0,stim,nogo1,333,387389,0.0-6.1-128.1,go_nogo_deval,424,,<img class = center src='/static/experiments/go_nogo_deval/images/red_triangle.png'></img>,32,850,test,red_triangle,-1,42,1,,,,,,,-1,-1,1400,0,stim,poldrack-single-stim,334,388790,0.0-6.1-129.1,go_nogo_deval,424,,<div></div>,32,1400,test,,,,,,,,,,,-1,-1,500,0,fixation,poldrack-single-stim,335,389292,0.0-6.1-130.1,go_nogo_deval,424,,<div class = centerbox><div class = fixation>+</div></div>,none,500,test,,,,,,,,,,,340,32,850,0,stim,go2,336,390143,0.0-6.1-131.1,go_nogo_deval,424,,<img class = center src='/static/experiments/go_nogo_deval/images/green_rhombus.png'></img>,32,850,test,green_rhombus,32,43,1,,,,,,,-1,-1,1400,0,stim,poldrack-single-stim,337,391545,0.0-6.1-132.1,go_nogo_deval,424,,<div></div>,32,1400,test,,,,,,,,,,,-1,-1,500,0,fixation,poldrack-single-stim,338,392046,0.0-6.1-133.1,go_nogo_deval,424,,<div class = centerbox><div class = fixation>+</div></div>,none,500,test,,,,,,,,,,,389,32,850,0,stim,go1,339,392898,0.0-6.1-134.1,go_nogo_deval,424,,<img class = center src='/static/experiments/go_nogo_deval/images/purple_pentagon.png'></img>,32,850,test,purple_pentagon,32,44,1,,,,,,,-1,-1,1400,0,stim,poldrack-single-stim,340,394300,0.0-6.1-135.1,go_nogo_deval,424,,<div></div>,32,1400,test,,,,,,,,,,,-1,-1,500,0,fixation,poldrack-single-stim,341,394801,0.0-6.1-136.1,go_nogo_deval,424,,<div class = centerbox><div class = fixation>+</div></div>,none,500,test,,,,,,,,,,,513,32,850,0,stim,go2,342,395653,0.0-6.1-137.1,go_nogo_deval,424,,<img class = center src='/static/experiments/go_nogo_deval/images/green_rhombus.png'></img>,32,850,test,green_rhombus,32,45,1,,,,,,,-1,-1,1400,0,stim,poldrack-single-stim,343,397055,0.0-6.1-138.1,go_nogo_deval,424,,<div></div>,32,1400,test,,,,,,,,,,,-1,-1,500,0,fixation,poldrack-single-stim,344,397557,0.0-6.1-139.1,go_nogo_deval,424,,<div class = centerbox><div class = fixation>+</div></div>,none,500,test,,,,,,,,,,,379,32,850,0,stim,go1,345,398409,0.0-6.1-140.1,go_nogo_deval,424,,<img class = center src='/static/experiments/go_nogo_deval/images/purple_pentagon.png'></img>,32,850,test,purple_pentagon,32,46,1,,,,,,,-1,-1,1400,0,stim,poldrack-single-stim,346,399811,0.0-6.1-141.1,go_nogo_deval,424,,<div></div>,32,1400,test,,,,,,,,,,,-1,-1,500,0,fixation,poldrack-single-stim,347,400312,0.0-6.1-142.1,go_nogo_deval,424,,<div class = centerbox><div class = fixation>+</div></div>,none,500,test,,,,,,,,,,,346,32,850,0,stim,go1,348,401164,0.0-6.1-143.1,go_nogo_deval,424,,<img class = center src='/static/experiments/go_nogo_deval/images/purple_pentagon.png'></img>,32,850,test,purple_pentagon,32,47,1,,,,,,,-1,-1,1400,0,stim,poldrack-single-stim,349,402565,0.0-6.1-144.1,go_nogo_deval,424,,<div></div>,32,1400,test,,,,,,,,,,,4403,13,4403,0,practice-no-stop-feedback,poldrack-single-stim,350,406971,0.0-6.2-0.2,go_nogo_deval,424,,<div class = centerbox><p class = block-text><br>Please take this time to read your feedback and to take a short break! Press enter to continue</p><p class = block-text><strong>Average reaction time:  390 ms. Accuracy: 49%</strong></p></div>,13,4403,,,,,,,,,,,,-1,-1,500,0,fixation,poldrack-single-stim,351,407472,0.0-6.2-1.2,go_nogo_deval,424,,<div class = centerbox><div class = fixation>+</div></div>,none,500,test,,,,,,,,,,,464,32,850,0,stim,go2,352,408324,0.0-6.2-2.2,go_nogo_deval,424,,<img class = center src='/static/experiments/go_nogo_deval/images/green_rhombus.png'></img>,32,850,test,green_rhombus,32,0,2,,,,,,,-1,-1,1400,0,stim,poldrack-single-stim,353,409726,0.0-6.2-3.2,go_nogo_deval,424,,<div></div>,32,1400,test,,,,,,,,,,,-1,-1,500,0,fixation,poldrack-single-stim,354,410228,0.0-6.2-4.2,go_nogo_deval,424,,<div class = centerbox><div class = fixation>+</div></div>,none,500,test,,,,,,,,,,,308,32,850,0,stim,go2,355,411080,0.0-6.2-5.2,go_nogo_deval,424,,<img class = center src='/static/experiments/go_nogo_deval/images/green_rhombus.png'></img>,32,850,test,green_rhombus,32,1,2,,,,,,,-1,-1,1400,0,stim,poldrack-single-stim,356,412481,0.0-6.2-6.2,go_nogo_deval,424,,<div></div>,32,1400,test,,,,,,,,,,,-1,-1,500,0,fixation,poldrack-single-stim,357,412982,0.0-6.2-7.2,go_nogo_deval,424,,<div class = centerbox><div class = fixation>+</div></div>,none,500,test,,,,,,,,,,,343,32,850,0,stim,go2,358,413834,0.0-6.2-8.2,go_nogo_deval,424,,<img class = center src='/static/experiments/go_nogo_deval/images/green_rhombus.png'></img>,32,850,test,green_rhombus,32,2,2,,,,,,,-1,-1,1400,0,stim,poldrack-single-stim,359,415236,0.0-6.2-9.2,go_nogo_deval,424,,<div></div>,32,1400,test,,,,,,,,,,,-1,-1,500,0,fixation,poldrack-single-stim,360,415736,0.0-6.2-10.2,go_nogo_deval,424,,<div class = centerbox><div class = fixation>+</div></div>,none,500,test,,,,,,,,,,,-1,-1,850,0,stim,nogo1,361,416588,0.0-6.2-11.2,go_nogo_deval,424,,<img class = center src='/static/experiments/go_nogo_deval/images/red_triangle.png'></img>,32,850,test,red_triangle,-1,3,2,,,,,,,-1,-1,1400,0,stim,poldrack-single-stim,362,417989,0.0-6.2-12.2,go_nogo_deval,424,,<div></div>,32,1400,test,,,,,,,,,,,-1,-1,500,0,fixation,poldrack-single-stim,363,418490,0.0-6.2-13.2,go_nogo_deval,424,,<div class = centerbox><div class = fixation>+</div></div>,none,500,test,,,,,,,,,,,-1,-1,850,0,stim,nogo2,364,419341,0.0-6.2-14.2,go_nogo_deval,424,,<img class = center src='/static/experiments/go_nogo_deval/images/blue_circle.png'></img>,32,850,test,blue_circle,-1,4,2,,,,,,,-1,-1,1400,0,stim,poldrack-single-stim,365,420743,0.0-6.2-15.2,go_nogo_deval,424,,<div></div>,32,1400,test,,,,,,,,,,,-1,-1,500,0,fixation,poldrack-single-stim,366,421245,0.0-6.2-16.2,go_nogo_deval,424,,<div class = centerbox><div class = fixation>+</div></div>,none,500,test,,,,,,,,,,,361,32,850,0,stim,go1,367,422097,0.0-6.2-17.2,go_nogo_deval,424,,<img class = center src='/static/experiments/go_nogo_deval/images/purple_pentagon.png'></img>,32,850,test,purple_pentagon,32,5,2,,,,,,,-1,-1,1400,0,stim,poldrack-single-stim,368,423499,0.0-6.2-18.2,go_nogo_deval,424,,<div></div>,32,1400,test,,,,,,,,,,,-1,-1,500,0,fixation,poldrack-single-stim,369,424000,0.0-6.2-19.2,go_nogo_deval,424,,<div class = centerbox><div class = fixation>+</div></div>,none,500,test,,,,,,,,,,,-1,-1,850,0,stim,nogo2,370,424852,0.0-6.2-20.2,go_nogo_deval,424,,<img class = center src='/static/experiments/go_nogo_deval/images/blue_circle.png'></img>,32,850,test,blue_circle,-1,6,2,,,,,,,-1,-1,1400,0,stim,poldrack-single-stim,371,426253,0.0-6.2-21.2,go_nogo_deval,424,,<div></div>,32,1400,test,,,,,,,,,,,-1,-1,500,0,fixation,poldrack-single-stim,372,426754,0.0-6.2-22.2,go_nogo_deval,424,,<div class = centerbox><div class = fixation>+</div></div>,none,500,test,,,,,,,,,,,398,32,850,0,stim,go1,373,427606,0.0-6.2-23.2,go_nogo_deval,424,,<img class = center src='/static/experiments/go_nogo_deval/images/purple_pentagon.png'></img>,32,850,test,purple_pentagon,32,7,2,,,,,,,-1,-1,1400,0,stim,poldrack-single-stim,374,429008,0.0-6.2-24.2,go_nogo_deval,424,,<div></div>,32,1400,test,,,,,,,,,,,-1,-1,500,0,fixation,poldrack-single-stim,375,429509,0.0-6.2-25.2,go_nogo_deval,424,,<div class = centerbox><div class = fixation>+</div></div>,none,500,test,,,,,,,,,,,388,32,850,0,stim,go2,376,430361,0.0-6.2-26.2,go_nogo_deval,424,,<img class = center src='/static/experiments/go_nogo_deval/images/green_rhombus.png'></img>,32,850,test,green_rhombus,32,8,2,,,,,,,-1,-1,1400,0,stim,poldrack-single-stim,377,431763,0.0-6.2-27.2,go_nogo_deval,424,,<div></div>,32,1400,test,,,,,,,,,,,-1,-1,500,0,fixation,poldrack-single-stim,378,432264,0.0-6.2-28.2,go_nogo_deval,424,,<div class = centerbox><div class = fixation>+</div></div>,none,500,test,,,,,,,,,,,502,32,850,0,stim,go2,379,433116,0.0-6.2-29.2,go_nogo_deval,424,,<img class = center src='/static/experiments/go_nogo_deval/images/green_rhombus.png'></img>,32,850,test,green_rhombus,32,9,2,,,,,,,-1,-1,1400,0,stim,poldrack-single-stim,380,434518,0.0-6.2-30.2,go_nogo_deval,424,,<div></div>,32,1400,test,,,,,,,,,,,-1,-1,500,0,fixation,poldrack-single-stim,381,435020,0.0-6.2-31.2,go_nogo_deval,424,,<div class = centerbox><div class = fixation>+</div></div>,none,500,test,,,,,,,,,,,435,32,850,0,stim,go2,382,435871,0.0-6.2-32.2,go_nogo_deval,424,,<img class = center src='/static/experiments/go_nogo_deval/images/green_rhombus.png'></img>,32,850,test,green_rhombus,32,10,2,,,,,,,-1,-1,1400,0,stim,poldrack-single-stim,383,437273,0.0-6.2-33.2,go_nogo_deval,424,,<div></div>,32,1400,test,,,,,,,,,,,-1,-1,500,0,fixation,poldrack-single-stim,384,437774,0.0-6.2-34.2,go_nogo_deval,424,,<div class = centerbox><div class = fixation>+</div></div>,none,500,test,,,,,,,,,,,-1,-1,850,0,stim,nogo2,385,438626,0.0-6.2-35.2,go_nogo_deval,424,,<img class = center src='/static/experiments/go_nogo_deval/images/blue_circle.png'></img>,32,850,test,blue_circle,-1,11,2,,,,,,,-1,-1,1400,0,stim,poldrack-single-stim,386,440028,0.0-6.2-36.2,go_nogo_deval,424,,<div></div>,32,1400,test,,,,,,,,,,,-1,-1,500,0,fixation,poldrack-single-stim,387,440529,0.0-6.2-37.2,go_nogo_deval,424,,<div class = centerbox><div class = fixation>+</div></div>,none,500,test,,,,,,,,,,,-1,-1,850,0,stim,nogo2,388,441380,0.0-6.2-38.2,go_nogo_deval,424,,<img class = center src='/static/experiments/go_nogo_deval/images/blue_circle.png'></img>,32,850,test,blue_circle,-1,12,2,,,,,,,-1,-1,1400,0,stim,poldrack-single-stim,389,442781,0.0-6.2-39.2,go_nogo_deval,424,,<div></div>,32,1400,test,,,,,,,,,,,-1,-1,500,0,fixation,poldrack-single-stim,390,443283,0.0-6.2-40.2,go_nogo_deval,424,,<div class = centerbox><div class = fixation>+</div></div>,none,500,test,,,,,,,,,,,-1,-1,850,0,stim,nogo1,391,444135,0.0-6.2-41.2,go_nogo_deval,424,,<img class = center src='/static/experiments/go_nogo_deval/images/red_triangle.png'></img>,32,850,test,red_triangle,-1,13,2,,,,,,,-1,-1,1400,0,stim,poldrack-single-stim,392,445537,0.0-6.2-42.2,go_nogo_deval,424,,<div></div>,32,1400,test,,,,,,,,,,,-1,-1,500,0,fixation,poldrack-single-stim,393,446039,0.0-6.2-43.2,go_nogo_deval,424,,<div class = centerbox><div class = fixation>+</div></div>,none,500,test,,,,,,,,,,,-1,-1,850,0,stim,nogo1,394,446891,0.0-6.2-44.2,go_nogo_deval,424,,<img class = center src='/static/experiments/go_nogo_deval/images/red_triangle.png'></img>,32,850,test,red_triangle,-1,14,2,,,,,,,-1,-1,1400,0,stim,poldrack-single-stim,395,448293,0.0-6.2-45.2,go_nogo_deval,424,,<div></div>,32,1400,test,,,,,,,,,,,-1,-1,500,0,fixation,poldrack-single-stim,396,448794,0.0-6.2-46.2,go_nogo_deval,424,,<div class = centerbox><div class = fixation>+</div></div>,none,500,test,,,,,,,,,,,397,32,850,0,stim,go1,397,449646,0.0-6.2-47.2,go_nogo_deval,424,,<img class = center src='/static/experiments/go_nogo_deval/images/purple_pentagon.png'></img>,32,850,test,purple_pentagon,32,15,2,,,,,,,-1,-1,1400,0,stim,poldrack-single-stim,398,451048,0.0-6.2-48.2,go_nogo_deval,424,,<div></div>,32,1400,test,,,,,,,,,,,-1,-1,500,0,fixation,poldrack-single-stim,399,451550,0.0-6.2-49.2,go_nogo_deval,424,,<div class = centerbox><div class = fixation>+</div></div>,none,500,test,,,,,,,,,,,431,32,850,0,stim,go1,400,452402,0.0-6.2-50.2,go_nogo_deval,424,,<img class = center src='/static/experiments/go_nogo_deval/images/purple_pentagon.png'></img>,32,850,test,purple_pentagon,32,16,2,,,,,,,-1,-1,1400,0,stim,poldrack-single-stim,401,453803,0.0-6.2-51.2,go_nogo_deval,424,,<div></div>,32,1400,test,,,,,,,,,,,-1,-1,500,0,fixation,poldrack-single-stim,402,454306,0.0-6.2-52.2,go_nogo_deval,424,,<div class = centerbox><div class = fixation>+</div></div>,none,500,test,,,,,,,,,,,-1,-1,850,0,stim,nogo2,403,455157,0.0-6.2-53.2,go_nogo_deval,424,,<img class = center src='/static/experiments/go_nogo_deval/images/blue_circle.png'></img>,32,850,test,blue_circle,-1,17,2,,,,,,,-1,-1,1400,0,stim,poldrack-single-stim,404,456559,0.0-6.2-54.2,go_nogo_deval,424,,<div></div>,32,1400,test,,,,,,,,,,,-1,-1,500,0,fixation,poldrack-single-stim,405,457060,0.0-6.2-55.2,go_nogo_deval,424,,<div class = centerbox><div class = fixation>+</div></div>,none,500,test,,,,,,,,,,,365,32,850,0,stim,go1,406,457912,0.0-6.2-56.2,go_nogo_deval,424,,<img class = center src='/static/experiments/go_nogo_deval/images/purple_pentagon.png'></img>,32,850,test,purple_pentagon,32,18,2,,,,,,,-1,-1,1400,0,stim,poldrack-single-stim,407,459313,0.0-6.2-57.2,go_nogo_deval,424,,<div></div>,32,1400,test,,,,,,,,,,,-1,-1,500,0,fixation,poldrack-single-stim,408,459815,0.0-6.2-58.2,go_nogo_deval,424,,<div class = centerbox><div class = fixation>+</div></div>,none,500,test,,,,,,,,,,,413,32,850,0,stim,go1,409,460665,0.0-6.2-59.2,go_nogo_deval,424,,<img class = center src='/static/experiments/go_nogo_deval/images/purple_pentagon.png'></img>,32,850,test,purple_pentagon,32,19,2,,,,,,,-1,-1,1400,0,stim,poldrack-single-stim,410,462067,0.0-6.2-60.2,go_nogo_deval,424,,<div></div>,32,1400,test,,,,,,,,,,,-1,-1,500,0,fixation,poldrack-single-stim,411,462569,0.0-6.2-61.2,go_nogo_deval,424,,<div class = centerbox><div class = fixation>+</div></div>,none,500,test,,,,,,,,,,,393,32,850,0,stim,go1,412,463421,0.0-6.2-62.2,go_nogo_deval,424,,<img class = center src='/static/experiments/go_nogo_deval/images/purple_pentagon.png'></img>,32,850,test,purple_pentagon,32,20,2,,,,,,,-1,-1,1400,0,stim,poldrack-single-stim,413,464822,0.0-6.2-63.2,go_nogo_deval,424,,<div></div>,32,1400,test,,,,,,,,,,,-1,-1,500,0,fixation,poldrack-single-stim,414,465322,0.0-6.2-64.2,go_nogo_deval,424,,<div class = centerbox><div class = fixation>+</div></div>,none,500,test,,,,,,,,,,,552,32,850,0,stim,go2,415,466174,0.0-6.2-65.2,go_nogo_deval,424,,<img class = center src='/static/experiments/go_nogo_deval/images/green_rhombus.png'></img>,32,850,test,green_rhombus,32,21,2,,,,,,,-1,-1,1400,0,stim,poldrack-single-stim,416,467576,0.0-6.2-66.2,go_nogo_deval,424,,<div></div>,32,1400,test,,,,,,,,,,,-1,-1,500,0,fixation,poldrack-single-stim,417,468078,0.0-6.2-67.2,go_nogo_deval,424,,<div class = centerbox><div class = fixation>+</div></div>,none,500,test,,,,,,,,,,,385,32,850,0,stim,go2,418,468929,0.0-6.2-68.2,go_nogo_deval,424,,<img class = center src='/static/experiments/go_nogo_deval/images/green_rhombus.png'></img>,32,850,test,green_rhombus,32,22,2,,,,,,,-1,-1,1400,0,stim,poldrack-single-stim,419,470330,0.0-6.2-69.2,go_nogo_deval,424,,<div></div>,32,1400,test,,,,,,,,,,,-1,-1,500,0,fixation,poldrack-single-stim,420,470832,0.0-6.2-70.2,go_nogo_deval,424,,<div class = centerbox><div class = fixation>+</div></div>,none,500,test,,,,,,,,,,,-1,-1,850,0,stim,nogo1,421,471684,0.0-6.2-71.2,go_nogo_deval,424,,<img class = center src='/static/experiments/go_nogo_deval/images/red_triangle.png'></img>,32,850,test,red_triangle,-1,23,2,,,,,,,-1,-1,1400,0,stim,poldrack-single-stim,422,473086,0.0-6.2-72.2,go_nogo_deval,424,,<div></div>,32,1400,test,,,,,,,,,,,-1,-1,500,0,fixation,poldrack-single-stim,423,473587,0.0-6.2-73.2,go_nogo_deval,424,,<div class = centerbox><div class = fixation>+</div></div>,none,500,test,,,,,,,,,,,434,32,850,0,stim,go1,424,474438,0.0-6.2-74.2,go_nogo_deval,424,,<img class = center src='/static/experiments/go_nogo_deval/images/purple_pentagon.png'></img>,32,850,test,purple_pentagon,32,24,2,,,,,,,-1,-1,1400,0,stim,poldrack-single-stim,425,475840,0.0-6.2-75.2,go_nogo_deval,424,,<div></div>,32,1400,test,,,,,,,,,,,-1,-1,500,0,fixation,poldrack-single-stim,426,476342,0.0-6.2-76.2,go_nogo_deval,424,,<div class = centerbox><div class = fixation>+</div></div>,none,500,test,,,,,,,,,,,469,32,850,0,stim,go1,427,477194,0.0-6.2-77.2,go_nogo_deval,424,,<img class = center src='/static/experiments/go_nogo_deval/images/purple_pentagon.png'></img>,32,850,test,purple_pentagon,32,25,2,,,,,,,-1,-1,1400,0,stim,poldrack-single-stim,428,478596,0.0-6.2-78.2,go_nogo_deval,424,,<div></div>,32,1400,test,,,,,,,,,,,-1,-1,500,0,fixation,poldrack-single-stim,429,479097,0.0-6.2-79.2,go_nogo_deval,424,,<div class = centerbox><div class = fixation>+</div></div>,none,500,test,,,,,,,,,,,-1,-1,850,0,stim,nogo1,430,479949,0.0-6.2-80.2,go_nogo_deval,424,,<img class = center src='/static/experiments/go_nogo_deval/images/red_triangle.png'></img>,32,850,test,red_triangle,-1,26,2,,,,,,,-1,-1,1400,0,stim,poldrack-single-stim,431,481350,0.0-6.2-81.2,go_nogo_deval,424,,<div></div>,32,1400,test,,,,,,,,,,,-1,-1,500,0,fixation,poldrack-single-stim,432,481852,0.0-6.2-82.2,go_nogo_deval,424,,<div class = centerbox><div class = fixation>+</div></div>,none,500,test,,,,,,,,,,,380,32,850,0,stim,go2,433,482704,0.0-6.2-83.2,go_nogo_deval,424,,<img class = center src='/static/experiments/go_nogo_deval/images/green_rhombus.png'></img>,32,850,test,green_rhombus,32,27,2,,,,,,,-1,-1,1400,0,stim,poldrack-single-stim,434,484106,0.0-6.2-84.2,go_nogo_deval,424,,<div></div>,32,1400,test,,,,,,,,,,,-1,-1,500,0,fixation,poldrack-single-stim,435,484608,0.0-6.2-85.2,go_nogo_deval,424,,<div class = centerbox><div class = fixation>+</div></div>,none,500,test,,,,,,,,,,,382,32,850,0,stim,go1,436,485460,0.0-6.2-86.2,go_nogo_deval,424,,<img class = center src='/static/experiments/go_nogo_deval/images/purple_pentagon.png'></img>,32,850,test,purple_pentagon,32,28,2,,,,,,,-1,-1,1400,0,stim,poldrack-single-stim,437,486861,0.0-6.2-87.2,go_nogo_deval,424,,<div></div>,32,1400,test,,,,,,,,,,,-1,-1,500,0,fixation,poldrack-single-stim,438,487362,0.0-6.2-88.2,go_nogo_deval,424,,<div class = centerbox><div class = fixation>+</div></div>,none,500,test,,,,,,,,,,,484,32,850,0,stim,go2,439,488213,0.0-6.2-89.2,go_nogo_deval,424,,<img class = center src='/static/experiments/go_nogo_deval/images/green_rhombus.png'></img>,32,850,test,green_rhombus,32,29,2,,,,,,,-1,-1,1400,0,stim,poldrack-single-stim,440,489614,0.0-6.2-90.2,go_nogo_deval,424,,<div></div>,32,1400,test,,,,,,,,,,,-1,-1,500,0,fixation,poldrack-single-stim,441,490115,0.0-6.2-91.2,go_nogo_deval,424,,<div class = centerbox><div class = fixation>+</div></div>,none,500,test,,,,,,,,,,,-1,-1,850,0,stim,nogo2,442,490968,0.0-6.2-92.2,go_nogo_deval,424,,<img class = center src='/static/experiments/go_nogo_deval/images/blue_circle.png'></img>,32,850,test,blue_circle,-1,30,2,,,,,,,-1,-1,1400,0,stim,poldrack-single-stim,443,492370,0.0-6.2-93.2,go_nogo_deval,424,,<div></div>,32,1400,test,,,,,,,,,,,-1,-1,500,0,fixation,poldrack-single-stim,444,492872,0.0-6.2-94.2,go_nogo_deval,424,,<div class = centerbox><div class = fixation>+</div></div>,none,500,test,,,,,,,,,,,409,32,850,0,stim,go1,445,493723,0.0-6.2-95.2,go_nogo_deval,424,,<img class = center src='/static/experiments/go_nogo_deval/images/purple_pentagon.png'></img>,32,850,test,purple_pentagon,32,31,2,,,,,,,-1,-1,1400,0,stim,poldrack-single-stim,446,495125,0.0-6.2-96.2,go_nogo_deval,424,,<div></div>,32,1400,test,,,,,,,,,,,-1,-1,500,0,fixation,poldrack-single-stim,447,495626,0.0-6.2-97.2,go_nogo_deval,424,,<div class = centerbox><div class = fixation>+</div></div>,none,500,test,,,,,,,,,,,433,32,850,0,stim,go2,448,496478,0.0-6.2-98.2,go_nogo_deval,424,,<img class = center src='/static/experiments/go_nogo_deval/images/green_rhombus.png'></img>,32,850,test,green_rhombus,32,32,2,,,,,,,-1,-1,1400,0,stim,poldrack-single-stim,449,497879,0.0-6.2-99.2,go_nogo_deval,424,,<div></div>,32,1400,test,,,,,,,,,,,-1,-1,500,0,fixation,poldrack-single-stim,450,498381,0.0-6.2-100.2,go_nogo_deval,424,,<div class = centerbox><div class = fixation>+</div></div>,none,500,test,,,,,,,,,,,502,32,850,0,stim,go2,451,499232,0.0-6.2-101.2,go_nogo_deval,424,,<img class = center src='/static/experiments/go_nogo_deval/images/green_rhombus.png'></img>,32,850,test,green_rhombus,32,33,2,,,,,,,-1,-1,1400,0,stim,poldrack-single-stim,452,500633,0.0-6.2-102.2,go_nogo_deval,424,,<div></div>,32,1400,test,,,,,,,,,,,-1,-1,500,0,fixation,poldrack-single-stim,453,501135,0.0-6.2-103.2,go_nogo_deval,424,,<div class = centerbox><div class = fixation>+</div></div>,none,500,test,,,,,,,,,,,380,32,850,0,stim,go2,454,501987,0.0-6.2-104.2,go_nogo_deval,424,,<img class = center src='/static/experiments/go_nogo_deval/images/green_rhombus.png'></img>,32,850,test,green_rhombus,32,34,2,,,,,,,-1,-1,1400,0,stim,poldrack-single-stim,455,503388,0.0-6.2-105.2,go_nogo_deval,424,,<div></div>,32,1400,test,,,,,,,,,,,-1,-1,500,0,fixation,poldrack-single-stim,456,503890,0.0-6.2-106.2,go_nogo_deval,424,,<div class = centerbox><div class = fixation>+</div></div>,none,500,test,,,,,,,,,,,371,32,850,0,stim,go1,457,504741,0.0-6.2-107.2,go_nogo_deval,424,,<img class = center src='/static/experiments/go_nogo_deval/images/purple_pentagon.png'></img>,32,850,test,purple_pentagon,32,35,2,,,,,,,-1,-1,1400,0,stim,poldrack-single-stim,458,506142,0.0-6.2-108.2,go_nogo_deval,424,,<div></div>,32,1400,test,,,,,,,,,,,-1,-1,500,0,fixation,poldrack-single-stim,459,506644,0.0-6.2-109.2,go_nogo_deval,424,,<div class = centerbox><div class = fixation>+</div></div>,none,500,test,,,,,,,,,,,395,32,850,0,stim,go1,460,507496,0.0-6.2-110.2,go_nogo_deval,424,,<img class = center src='/static/experiments/go_nogo_deval/images/purple_pentagon.png'></img>,32,850,test,purple_pentagon,32,36,2,,,,,,,-1,-1,1400,0,stim,poldrack-single-stim,461,508897,0.0-6.2-111.2,go_nogo_deval,424,,<div></div>,32,1400,test,,,,,,,,,,,-1,-1,500,0,fixation,poldrack-single-stim,462,509399,0.0-6.2-112.2,go_nogo_deval,424,,<div class = centerbox><div class = fixation>+</div></div>,none,500,test,,,,,,,,,,,397,32,850,0,stim,go1,463,510250,0.0-6.2-113.2,go_nogo_deval,424,,<img class = center src='/static/experiments/go_nogo_deval/images/purple_pentagon.png'></img>,32,850,test,purple_pentagon,32,37,2,,,,,,,-1,-1,1400,0,stim,poldrack-single-stim,464,511651,0.0-6.2-114.2,go_nogo_deval,424,,<div></div>,32,1400,test,,,,,,,,,,,-1,-1,500,0,fixation,poldrack-single-stim,465,512153,0.0-6.2-115.2,go_nogo_deval,424,,<div class = centerbox><div class = fixation>+</div></div>,none,500,test,,,,,,,,,,,-1,-1,850,0,stim,nogo1,466,513005,0.0-6.2-116.2,go_nogo_deval,424,,<img class = center src='/static/experiments/go_nogo_deval/images/red_triangle.png'></img>,32,850,test,red_triangle,-1,38,2,,,,,,,-1,-1,1400,0,stim,poldrack-single-stim,467,514407,0.0-6.2-117.2,go_nogo_deval,424,,<div></div>,32,1400,test,,,,,,,,,,,-1,-1,500,0,fixation,poldrack-single-stim,468,514909,0.0-6.2-118.2,go_nogo_deval,424,,<div class = centerbox><div class = fixation>+</div></div>,none,500,test,,,,,,,,,,,-1,-1,850,0,stim,nogo1,469,515761,0.0-6.2-119.2,go_nogo_deval,424,,<img class = center src='/static/experiments/go_nogo_deval/images/red_triangle.png'></img>,32,850,test,red_triangle,-1,39,2,,,,,,,-1,-1,1400,0,stim,poldrack-single-stim,470,517162,0.0-6.2-120.2,go_nogo_deval,424,,<div></div>,32,1400,test,,,,,,,,,,,-1,-1,500,0,fixation,poldrack-single-stim,471,517664,0.0-6.2-121.2,go_nogo_deval,424,,<div class = centerbox><div class = fixation>+</div></div>,none,500,test,,,,,,,,,,,345,32,850,0,stim,go1,472,518515,0.0-6.2-122.2,go_nogo_deval,424,,<img class = center src='/static/experiments/go_nogo_deval/images/purple_pentagon.png'></img>,32,850,test,purple_pentagon,32,40,2,,,,,,,-1,-1,1400,0,stim,poldrack-single-stim,473,519917,0.0-6.2-123.2,go_nogo_deval,424,,<div></div>,32,1400,test,,,,,,,,,,,-1,-1,500,0,fixation,poldrack-single-stim,474,520418,0.0-6.2-124.2,go_nogo_deval,424,,<div class = centerbox><div class = fixation>+</div></div>,none,500,test,,,,,,,,,,,358,32,850,0,stim,go2,475,521269,0.0-6.2-125.2,go_nogo_deval,424,,<img class = center src='/static/experiments/go_nogo_deval/images/green_rhombus.png'></img>,32,850,test,green_rhombus,32,41,2,,,,,,,2,32,1400,0,stim,poldrack-single-stim,476,522670,0.0-6.2-126.2,go_nogo_deval,424,,<div></div>,32,1400,test,,,,,,,,,,,-1,-1,500,0,fixation,poldrack-single-stim,477,523172,0.0-6.2-127.2,go_nogo_deval,424,,<div class = centerbox><div class = fixation>+</div></div>,none,500,test,,,,,,,,,,,-1,-1,850,0,stim,nogo1,478,524023,0.0-6.2-128.2,go_nogo_deval,424,,<img class = center src='/static/experiments/go_nogo_deval/images/red_triangle.png'></img>,32,850,test,red_triangle,-1,42,2,,,,,,,-1,-1,1400,0,stim,poldrack-single-stim,479,525425,0.0-6.2-129.2,go_nogo_deval,424,,<div></div>,32,1400,test,,,,,,,,,,,-1,-1,500,0,fixation,poldrack-single-stim,480,525927,0.0-6.2-130.2,go_nogo_deval,424,,<div class = centerbox><div class = fixation>+</div></div>,none,500,test,,,,,,,,,,,-1,-1,850,0,stim,nogo2,481,526778,0.0-6.2-131.2,go_nogo_deval,424,,<img class = center src='/static/experiments/go_nogo_deval/images/blue_circle.png'></img>,32,850,test,blue_circle,-1,43,2,,,,,,,-1,-1,1400,0,stim,poldrack-single-stim,482,528180,0.0-6.2-132.2,go_nogo_deval,424,,<div></div>,32,1400,test,,,,,,,,,,,-1,-1,500,0,fixation,poldrack-single-stim,483,528681,0.0-6.2-133.2,go_nogo_deval,424,,<div class = centerbox><div class = fixation>+</div></div>,none,500,test,,,,,,,,,,,432,32,850,0,stim,go2,484,529533,0.0-6.2-134.2,go_nogo_deval,424,,<img class = center src='/static/experiments/go_nogo_deval/images/green_rhombus.png'></img>,32,850,test,green_rhombus,32,44,2,,,,,,,-1,-1,1400,0,stim,poldrack-single-stim,485,530933,0.0-6.2-135.2,go_nogo_deval,424,,<div></div>,32,1400,test,,,,,,,,,,,-1,-1,500,0,fixation,poldrack-single-stim,486,531435,0.0-6.2-136.2,go_nogo_deval,424,,<div class = centerbox><div class = fixation>+</div></div>,none,500,test,,,,,,,,,,,-1,-1,850,0,stim,nogo2,487,532287,0.0-6.2-137.2,go_nogo_deval,424,,<img class = center src='/static/experiments/go_nogo_deval/images/blue_circle.png'></img>,32,850,test,blue_circle,-1,45,2,,,,,,,-1,-1,1400,0,stim,poldrack-single-stim,488,533689,0.0-6.2-138.2,go_nogo_deval,424,,<div></div>,32,1400,test,,,,,,,,,,,-1,-1,500,0,fixation,poldrack-single-stim,489,534190,0.0-6.2-139.2,go_nogo_deval,424,,<div class = centerbox><div class = fixation>+</div></div>,none,500,test,,,,,,,,,,,411,32,850,0,stim,go1,490,535041,0.0-6.2-140.2,go_nogo_deval,424,,<img class = center src='/static/experiments/go_nogo_deval/images/purple_pentagon.png'></img>,32,850,test,purple_pentagon,32,46,2,,,,,,,-1,-1,1400,0,stim,poldrack-single-stim,491,536443,0.0-6.2-141.2,go_nogo_deval,424,,<div></div>,32,1400,test,,,,,,,,,,,-1,-1,500,0,fixation,poldrack-single-stim,492,536945,0.0-6.2-142.2,go_nogo_deval,424,,<div class = centerbox><div class = fixation>+</div></div>,none,500,test,,,,,,,,,,,346,32,850,0,stim,go2,493,537796,0.0-6.2-143.2,go_nogo_deval,424,,<img class = center src='/static/experiments/go_nogo_deval/images/green_rhombus.png'></img>,32,850,test,green_rhombus,32,47,2,,,,,,,-1,-1,1400,0,stim,poldrack-single-stim,494,539198,0.0-6.2-144.2,go_nogo_deval,424,,<div></div>,32,1400,test,,,,,,,,,,,1522,13,1522,0,practice-no-stop-feedback,poldrack-single-stim,495,540723,0.0-6.3-0.3,go_nogo_deval,424,,<div class = centerbox><p class = block-text><br>Please take this time to read your feedback and to take a short break! Press enter to continue</p><p class = block-text><strong>Average reaction time:  408 ms. Accuracy: 50%</strong></p></div>,13,1522,,,,,,,,,,,,-1,-1,500,0,fixation,poldrack-single-stim,496,541224,0.0-6.3-1.3,go_nogo_deval,424,,<div class = centerbox><div class = fixation>+</div></div>,none,500,test,,,,,,,,,,,398,32,850,0,stim,go1,497,542075,0.0-6.3-2.3,go_nogo_deval,424,,<img class = center src='/static/experiments/go_nogo_deval/images/purple_pentagon.png'></img>,32,850,test,purple_pentagon,32,0,3,,,,,,,-1,-1,1400,0,stim,poldrack-single-stim,498,543477,0.0-6.3-3.3,go_nogo_deval,424,,<div></div>,32,1400,test,,,,,,,,,,,-1,-1,500,0,fixation,poldrack-single-stim,499,543979,0.0-6.3-4.3,go_nogo_deval,424,,<div class = centerbox><div class = fixation>+</div></div>,none,500,test,,,,,,,,,,,355,32,850,0,stim,go2,500,544831,0.0-6.3-5.3,go_nogo_deval,424,,<img class = center src='/static/experiments/go_nogo_deval/images/green_rhombus.png'></img>,32,850,test,green_rhombus,32,1,3,,,,,,,-1,-1,1400,0,stim,poldrack-single-stim,501,546233,0.0-6.3-6.3,go_nogo_deval,424,,<div></div>,32,1400,test,,,,,,,,,,,-1,-1,500,0,fixation,poldrack-single-stim,502,546734,0.0-6.3-7.3,go_nogo_deval,424,,<div class = centerbox><div class = fixation>+</div></div>,none,500,test,,,,,,,,,,,-1,-1,850,0,stim,nogo1,503,547585,0.0-6.3-8.3,go_nogo_deval,424,,<img class = center src='/static/experiments/go_nogo_deval/images/red_triangle.png'></img>,32,850,test,red_triangle,-1,2,3,,,,,,,-1,-1,1400,0,stim,poldrack-single-stim,504,548987,0.0-6.3-9.3,go_nogo_deval,424,,<div></div>,32,1400,test,,,,,,,,,,,-1,-1,500,0,fixation,poldrack-single-stim,505,549488,0.0-6.3-10.3,go_nogo_deval,424,,<div class = centerbox><div class = fixation>+</div></div>,none,500,test,,,,,,,,,,,381,32,850,0,stim,go1,506,550340,0.0-6.3-11.3,go_nogo_deval,424,,<img class = center src='/static/experiments/go_nogo_deval/images/purple_pentagon.png'></img>,32,850,test,purple_pentagon,32,3,3,,,,,,,-1,-1,1400,0,stim,poldrack-single-stim,507,551742,0.0-6.3-12.3,go_nogo_deval,424,,<div></div>,32,1400,test,,,,,,,,,,,-1,-1,500,0,fixation,poldrack-single-stim,508,552243,0.0-6.3-13.3,go_nogo_deval,424,,<div class = centerbox><div class = fixation>+</div></div>,none,500,test,,,,,,,,,,,-1,-1,850,0,stim,nogo1,509,553094,0.0-6.3-14.3,go_nogo_deval,424,,<img class = center src='/static/experiments/go_nogo_deval/images/red_triangle.png'></img>,32,850,test,red_triangle,-1,4,3,,,,,,,-1,-1,1400,0,stim,poldrack-single-stim,510,554496,0.0-6.3-15.3,go_nogo_deval,424,,<div></div>,32,1400,test,,,,,,,,,,,-1,-1,500,0,fixation,poldrack-single-stim,511,554998,0.0-6.3-16.3,go_nogo_deval,424,,<div class = centerbox><div class = fixation>+</div></div>,none,500,test,,,,,,,,,,,350,32,850,0,stim,go2,512,555850,0.0-6.3-17.3,go_nogo_deval,424,,<img class = center src='/static/experiments/go_nogo_deval/images/green_rhombus.png'></img>,32,850,test,green_rhombus,32,5,3,,,,,,,-1,-1,1400,0,stim,poldrack-single-stim,513,557251,0.0-6.3-18.3,go_nogo_deval,424,,<div></div>,32,1400,test,,,,,,,,,,,-1,-1,500,0,fixation,poldrack-single-stim,514,557752,0.0-6.3-19.3,go_nogo_deval,424,,<div class = centerbox><div class = fixation>+</div></div>,none,500,test,,,,,,,,,,,-1,-1,850,0,stim,nogo1,515,558604,0.0-6.3-20.3,go_nogo_deval,424,,<img class = center src='/static/experiments/go_nogo_deval/images/red_triangle.png'></img>,32,850,test,red_triangle,-1,6,3,,,,,,,-1,-1,1400,0,stim,poldrack-single-stim,516,560006,0.0-6.3-21.3,go_nogo_deval,424,,<div></div>,32,1400,test,,,,,,,,,,,-1,-1,500,0,fixation,poldrack-single-stim,517,560507,0.0-6.3-22.3,go_nogo_deval,424,,<div class = centerbox><div class = fixation>+</div></div>,none,500,test,,,,,,,,,,,331,32,850,0,stim,go2,518,561359,0.0-6.3-23.3,go_nogo_deval,424,,<img class = center src='/static/experiments/go_nogo_deval/images/green_rhombus.png'></img>,32,850,test,green_rhombus,32,7,3,,,,,,,-1,-1,1400,0,stim,poldrack-single-stim,519,562761,0.0-6.3-24.3,go_nogo_deval,424,,<div></div>,32,1400,test,,,,,,,,,,,-1,-1,500,0,fixation,poldrack-single-stim,520,563262,0.0-6.3-25.3,go_nogo_deval,424,,<div class = centerbox><div class = fixation>+</div></div>,none,500,test,,,,,,,,,,,331,32,850,0,stim,go2,521,564114,0.0-6.3-26.3,go_nogo_deval,424,,<img class = center src='/static/experiments/go_nogo_deval/images/green_rhombus.png'></img>,32,850,test,green_rhombus,32,8,3,,,,,,,-1,-1,1400,0,stim,poldrack-single-stim,522,565516,0.0-6.3-27.3,go_nogo_deval,424,,<div></div>,32,1400,test,,,,,,,,,,,-1,-1,500,0,fixation,poldrack-single-stim,523,566017,0.0-6.3-28.3,go_nogo_deval,424,,<div class = centerbox><div class = fixation>+</div></div>,none,500,test,,,,,,,,,,,356,32,850,0,stim,go2,524,566869,0.0-6.3-29.3,go_nogo_deval,424,,<img class = center src='/static/experiments/go_nogo_deval/images/green_rhombus.png'></img>,32,850,test,green_rhombus,32,9,3,,,,,,,-1,-1,1400,0,stim,poldrack-single-stim,525,568270,0.0-6.3-30.3,go_nogo_deval,424,,<div></div>,32,1400,test,,,,,,,,,,,-1,-1,500,0,fixation,poldrack-single-stim,526,568772,0.0-6.3-31.3,go_nogo_deval,424,,<div class = centerbox><div class = fixation>+</div></div>,none,500,test,,,,,,,,,,,-1,-1,850,0,stim,nogo1,527,569624,0.0-6.3-32.3,go_nogo_deval,424,,<img class = center src='/static/experiments/go_nogo_deval/images/red_triangle.png'></img>,32,850,test,red_triangle,-1,10,3,,,,,,,-1,-1,1400,0,stim,poldrack-single-stim,528,571025,0.0-6.3-33.3,go_nogo_deval,424,,<div></div>,32,1400,test,,,,,,,,,,,-1,-1,500,0,fixation,poldrack-single-stim,529,571527,0.0-6.3-34.3,go_nogo_deval,424,,<div class = centerbox><div class = fixation>+</div></div>,none,500,test,,,,,,,,,,,324,32,850,0,stim,go1,530,572378,0.0-6.3-35.3,go_nogo_deval,424,,<img class = center src='/static/experiments/go_nogo_deval/images/purple_pentagon.png'></img>,32,850,test,purple_pentagon,32,11,3,,,,,,,-1,-1,1400,0,stim,poldrack-single-stim,531,573779,0.0-6.3-36.3,go_nogo_deval,424,,<div></div>,32,1400,test,,,,,,,,,,,-1,-1,500,0,fixation,poldrack-single-stim,532,574281,0.0-6.3-37.3,go_nogo_deval,424,,<div class = centerbox><div class = fixation>+</div></div>,none,500,test,,,,,,,,,,,-1,-1,850,0,stim,nogo2,533,575133,0.0-6.3-38.3,go_nogo_deval,424,,<img class = center src='/static/experiments/go_nogo_deval/images/blue_circle.png'></img>,32,850,test,blue_circle,-1,12,3,,,,,,,-1,-1,1400,0,stim,poldrack-single-stim,534,576535,0.0-6.3-39.3,go_nogo_deval,424,,<div></div>,32,1400,test,,,,,,,,,,,-1,-1,500,0,fixation,poldrack-single-stim,535,577037,0.0-6.3-40.3,go_nogo_deval,424,,<div class = centerbox><div class = fixation>+</div></div>,none,500,test,,,,,,,,,,,-1,-1,850,0,stim,nogo2,536,577889,0.0-6.3-41.3,go_nogo_deval,424,,<img class = center src='/static/experiments/go_nogo_deval/images/blue_circle.png'></img>,32,850,test,blue_circle,-1,13,3,,,,,,,-1,-1,1400,0,stim,poldrack-single-stim,537,579290,0.0-6.3-42.3,go_nogo_deval,424,,<div></div>,32,1400,test,,,,,,,,,,,-1,-1,500,0,fixation,poldrack-single-stim,538,579790,0.0-6.3-43.3,go_nogo_deval,424,,<div class = centerbox><div class = fixation>+</div></div>,none,500,test,,,,,,,,,,,-1,-1,850,0,stim,nogo1,539,580642,0.0-6.3-44.3,go_nogo_deval,424,,<img class = center src='/static/experiments/go_nogo_deval/images/red_triangle.png'></img>,32,850,test,red_triangle,-1,14,3,,,,,,,-1,-1,1400,0,stim,poldrack-single-stim,540,582044,0.0-6.3-45.3,go_nogo_deval,424,,<div></div>,32,1400,test,,,,,,,,,,,-1,-1,500,0,fixation,poldrack-single-stim,541,582546,0.0-6.3-46.3,go_nogo_deval,424,,<div class = centerbox><div class = fixation>+</div></div>,none,500,test,,,,,,,,,,,342,32,850,0,stim,go1,542,583398,0.0-6.3-47.3,go_nogo_deval,424,,<img class = center src='/static/experiments/go_nogo_deval/images/purple_pentagon.png'></img>,32,850,test,purple_pentagon,32,15,3,,,,,,,-1,-1,1400,0,stim,poldrack-single-stim,543,584800,0.0-6.3-48.3,go_nogo_deval,424,,<div></div>,32,1400,test,,,,,,,,,,,-1,-1,500,0,fixation,poldrack-single-stim,544,585301,0.0-6.3-49.3,go_nogo_deval,424,,<div class = centerbox><div class = fixation>+</div></div>,none,500,test,,,,,,,,,,,398,32,850,0,stim,go2,545,586152,0.0-6.3-50.3,go_nogo_deval,424,,<img class = center src='/static/experiments/go_nogo_deval/images/green_rhombus.png'></img>,32,850,test,green_rhombus,32,16,3,,,,,,,-1,-1,1400,0,stim,poldrack-single-stim,546,587554,0.0-6.3-51.3,go_nogo_deval,424,,<div></div>,32,1400,test,,,,,,,,,,,-1,-1,500,0,fixation,poldrack-single-stim,547,588056,0.0-6.3-52.3,go_nogo_deval,424,,<div class = centerbox><div class = fixation>+</div></div>,none,500,test,,,,,,,,,,,333,32,850,0,stim,go1,548,588908,0.0-6.3-53.3,go_nogo_deval,424,,<img class = center src='/static/experiments/go_nogo_deval/images/purple_pentagon.png'></img>,32,850,test,purple_pentagon,32,17,3,,,,,,,-1,-1,1400,0,stim,poldrack-single-stim,549,590308,0.0-6.3-54.3,go_nogo_deval,424,,<div></div>,32,1400,test,,,,,,,,,,,-1,-1,500,0,fixation,poldrack-single-stim,550,590810,0.0-6.3-55.3,go_nogo_deval,424,,<div class = centerbox><div class = fixation>+</div></div>,none,500,test,,,,,,,,,,,301,32,850,0,stim,go1,551,591662,0.0-6.3-56.3,go_nogo_deval,424,,<img class = center src='/static/experiments/go_nogo_deval/images/purple_pentagon.png'></img>,32,850,test,purple_pentagon,32,18,3,,,,,,,-1,-1,1400,0,stim,poldrack-single-stim,552,593064,0.0-6.3-57.3,go_nogo_deval,424,,<div></div>,32,1400,test,,,,,,,,,,,-1,-1,500,0,fixation,poldrack-single-stim,553,593565,0.0-6.3-58.3,go_nogo_deval,424,,<div class = centerbox><div class = fixation>+</div></div>,none,500,test,,,,,,,,,,,-1,-1,850,0,stim,nogo2,554,594417,0.0-6.3-59.3,go_nogo_deval,424,,<img class = center src='/static/experiments/go_nogo_deval/images/blue_circle.png'></img>,32,850,test,blue_circle,-1,19,3,,,,,,,-1,-1,1400,0,stim,poldrack-single-stim,555,595818,0.0-6.3-60.3,go_nogo_deval,424,,<div></div>,32,1400,test,,,,,,,,,,,-1,-1,500,0,fixation,poldrack-single-stim,556,596320,0.0-6.3-61.3,go_nogo_deval,424,,<div class = centerbox><div class = fixation>+</div></div>,none,500,test,,,,,,,,,,,-1,-1,850,0,stim,nogo2,557,597172,0.0-6.3-62.3,go_nogo_deval,424,,<img class = center src='/static/experiments/go_nogo_deval/images/blue_circle.png'></img>,32,850,test,blue_circle,-1,20,3,,,,,,,-1,-1,1400,0,stim,poldrack-single-stim,558,598574,0.0-6.3-63.3,go_nogo_deval,424,,<div></div>,32,1400,test,,,,,,,,,,,-1,-1,500,0,fixation,poldrack-single-stim,559,599076,0.0-6.3-64.3,go_nogo_deval,424,,<div class = centerbox><div class = fixation>+</div></div>,none,500,test,,,,,,,,,,,339,32,850,0,stim,go1,560,599927,0.0-6.3-65.3,go_nogo_deval,424,,<img class = center src='/static/experiments/go_nogo_deval/images/purple_pentagon.png'></img>,32,850,test,purple_pentagon,32,21,3,,,,,,,-1,-1,1400,0,stim,poldrack-single-stim,561,601328,0.0-6.3-66.3,go_nogo_deval,424,,<div></div>,32,1400,test,,,,,,,,,,,-1,-1,500,0,fixation,poldrack-single-stim,562,601830,0.0-6.3-67.3,go_nogo_deval,424,,<div class = centerbox><div class = fixation>+</div></div>,none,500,test,,,,,,,,,,,419,32,850,0,stim,go2,563,602682,0.0-6.3-68.3,go_nogo_deval,424,,<img class = center src='/static/experiments/go_nogo_deval/images/green_rhombus.png'></img>,32,850,test,green_rhombus,32,22,3,,,,,,,-1,-1,1400,0,stim,poldrack-single-stim,564,604083,0.0-6.3-69.3,go_nogo_deval,424,,<div></div>,32,1400,test,,,,,,,,,,,-1,-1,500,0,fixation,poldrack-single-stim,565,604585,0.0-6.3-70.3,go_nogo_deval,424,,<div class = centerbox><div class = fixation>+</div></div>,none,500,test,,,,,,,,,,,421,32,850,0,stim,go1,566,605435,0.0-6.3-71.3,go_nogo_deval,424,,<img class = center src='/static/experiments/go_nogo_deval/images/purple_pentagon.png'></img>,32,850,test,purple_pentagon,32,23,3,,,,,,,-1,-1,1400,0,stim,poldrack-single-stim,567,606837,0.0-6.3-72.3,go_nogo_deval,424,,<div></div>,32,1400,test,,,,,,,,,,,-1,-1,500,0,fixation,poldrack-single-stim,568,607338,0.0-6.3-73.3,go_nogo_deval,424,,<div class = centerbox><div class = fixation>+</div></div>,none,500,test,,,,,,,,,,,401,32,850,0,stim,go2,569,608190,0.0-6.3-74.3,go_nogo_deval,424,,<img class = center src='/static/experiments/go_nogo_deval/images/green_rhombus.png'></img>,32,850,test,green_rhombus,32,24,3,,,,,,,-1,-1,1400,0,stim,poldrack-single-stim,570,609592,0.0-6.3-75.3,go_nogo_deval,424,,<div></div>,32,1400,test,,,,,,,,,,,-1,-1,500,0,fixation,poldrack-single-stim,571,610093,0.0-6.3-76.3,go_nogo_deval,424,,<div class = centerbox><div class = fixation>+</div></div>,none,500,test,,,,,,,,,,,-1,-1,850,0,stim,nogo1,572,610944,0.0-6.3-77.3,go_nogo_deval,424,,<img class = center src='/static/experiments/go_nogo_deval/images/red_triangle.png'></img>,32,850,test,red_triangle,-1,25,3,,,,,,,-1,-1,1400,0,stim,poldrack-single-stim,573,612346,0.0-6.3-78.3,go_nogo_deval,424,,<div></div>,32,1400,test,,,,,,,,,,,-1,-1,500,0,fixation,poldrack-single-stim,574,612848,0.0-6.3-79.3,go_nogo_deval,424,,<div class = centerbox><div class = fixation>+</div></div>,none,500,test,,,,,,,,,,,517,32,850,0,stim,go1,575,613700,0.0-6.3-80.3,go_nogo_deval,424,,<img class = center src='/static/experiments/go_nogo_deval/images/purple_pentagon.png'></img>,32,850,test,purple_pentagon,32,26,3,,,,,,,-1,-1,1400,0,stim,poldrack-single-stim,576,615100,0.0-6.3-81.3,go_nogo_deval,424,,<div></div>,32,1400,test,,,,,,,,,,,-1,-1,500,0,fixation,poldrack-single-stim,577,615601,0.0-6.3-82.3,go_nogo_deval,424,,<div class = centerbox><div class = fixation>+</div></div>,none,500,test,,,,,,,,,,,-1,-1,850,0,stim,nogo1,578,616453,0.0-6.3-83.3,go_nogo_deval,424,,<img class = center src='/static/experiments/go_nogo_deval/images/red_triangle.png'></img>,32,850,test,red_triangle,-1,27,3,,,,,,,-1,-1,1400,0,stim,poldrack-single-stim,579,617854,0.0-6.3-84.3,go_nogo_deval,424,,<div></div>,32,1400,test,,,,,,,,,,,-1,-1,500,0,fixation,poldrack-single-stim,580,618356,0.0-6.3-85.3,go_nogo_deval,424,,<div class = centerbox><div class = fixation>+</div></div>,none,500,test,,,,,,,,,,,352,32,850,0,stim,go1,581,619208,0.0-6.3-86.3,go_nogo_deval,424,,<img class = center src='/static/experiments/go_nogo_deval/images/purple_pentagon.png'></img>,32,850,test,purple_pentagon,32,28,3,,,,,,,-1,-1,1400,0,stim,poldrack-single-stim,582,620609,0.0-6.3-87.3,go_nogo_deval,424,,<div></div>,32,1400,test,,,,,,,,,,,-1,-1,500,0,fixation,poldrack-single-stim,583,621111,0.0-6.3-88.3,go_nogo_deval,424,,<div class = centerbox><div class = fixation>+</div></div>,none,500,test,,,,,,,,,,,511,32,850,0,stim,go2,584,621962,0.0-6.3-89.3,go_nogo_deval,424,,<img class = center src='/static/experiments/go_nogo_deval/images/green_rhombus.png'></img>,32,850,test,green_rhombus,32,29,3,,,,,,,-1,-1,1400,0,stim,poldrack-single-stim,585,623364,0.0-6.3-90.3,go_nogo_deval,424,,<div></div>,32,1400,test,,,,,,,,,,,-1,-1,500,0,fixation,poldrack-single-stim,586,623864,0.0-6.3-91.3,go_nogo_deval,424,,<div class = centerbox><div class = fixation>+</div></div>,none,500,test,,,,,,,,,,,379,32,850,0,stim,go2,587,624716,0.0-6.3-92.3,go_nogo_deval,424,,<img class = center src='/static/experiments/go_nogo_deval/images/green_rhombus.png'></img>,32,850,test,green_rhombus,32,30,3,,,,,,,-1,-1,1400,0,stim,poldrack-single-stim,588,626118,0.0-6.3-93.3,go_nogo_deval,424,,<div></div>,32,1400,test,,,,,,,,,,,-1,-1,500,0,fixation,poldrack-single-stim,589,626619,0.0-6.3-94.3,go_nogo_deval,424,,<div class = centerbox><div class = fixation>+</div></div>,none,500,test,,,,,,,,,,,380,32,850,0,stim,go1,590,627471,0.0-6.3-95.3,go_nogo_deval,424,,<img class = center src='/static/experiments/go_nogo_deval/images/purple_pentagon.png'></img>,32,850,test,purple_pentagon,32,31,3,,,,,,,-1,-1,1400,0,stim,poldrack-single-stim,591,628873,0.0-6.3-96.3,go_nogo_deval,424,,<div></div>,32,1400,test,,,,,,,,,,,-1,-1,500,0,fixation,poldrack-single-stim,592,629374,0.0-6.3-97.3,go_nogo_deval,424,,<div class = centerbox><div class = fixation>+</div></div>,none,500,test,,,,,,,,,,,336,32,850,0,stim,go1,593,630226,0.0-6.3-98.3,go_nogo_deval,424,,<img class = center src='/static/experiments/go_nogo_deval/images/purple_pentagon.png'></img>,32,850,test,purple_pentagon,32,32,3,,,,,,,-1,-1,1400,0,stim,poldrack-single-stim,594,631628,0.0-6.3-99.3,go_nogo_deval,424,,<div></div>,32,1400,test,,,,,,,,,,,-1,-1,500,0,fixation,poldrack-single-stim,595,632129,0.0-6.3-100.3,go_nogo_deval,424,,<div class = centerbox><div class = fixation>+</div></div>,none,500,test,,,,,,,,,,,-1,-1,850,0,stim,nogo1,596,632981,0.0-6.3-101.3,go_nogo_deval,424,,<img class = center src='/static/experiments/go_nogo_deval/images/red_triangle.png'></img>,32,850,test,red_triangle,-1,33,3,,,,,,,-1,-1,1400,0,stim,poldrack-single-stim,597,634383,0.0-6.3-102.3,go_nogo_deval,424,,<div></div>,32,1400,test,,,,,,,,,,,-1,-1,500,0,fixation,poldrack-single-stim,598,634885,0.0-6.3-103.3,go_nogo_deval,424,,<div class = centerbox><div class = fixation>+</div></div>,none,500,test,,,,,,,,,,