text,rt,key_press,block_duration,timing_post_trial,trial_id,trial_type,trial_index,time_elapsed,internal_node_id,exp_id,subject_ID,view_history,stimulus,possible_responses,stim_duration,exp_stage,stim,go_nogo_type,correct_response,current_trial,current_block,chosenStim,chosenCond,stimLeft,cond_left,stimRight,cond_right<div class = centerbox><p class = center-block-text>Welcome to the task!</p><p class = center-block-text>Press<strong> enter</strong> to continue.</p></div>,2063,13,2063,0,welcome,poldrack-text,0,2065,0.0-0.0,go_nogo_deval,445,,,,,,,,,,,,,,,,,65061,,,,instruction,poldrack-instructions,1,67127,0.0-1.0,go_nogo_deval,445,"[{""page_index"":0,""viewing_time"":3962},{""page_index"":1,""viewing_time"":61099}]",,,,,,,,,,,,,,,,3662,13,3662,0,stop_intro_phase1,poldrack-single-stim,2,71792,0.0-2.0,go_nogo_deval,445,,"<div class = centerbox><p class = block-text>We will now start the practice for the experiment.<br><br>For these trials, you must press the <strong>spacebar </strong> or have <strong>no response</strong> depending on the shape of the stimulus.  Make sure to respond as quickly and accurately as possible to the shape. <br><br> The responses for each shape are as follows: <ul list-text><li>circle: spacebar</li><li>pentagon: spacebar</li><li>rhombus: no response</li><li>triangle: no response</li></ul></p><p class = block-text>Remember these rules before you proceed.</p><p class = block-text>Press <strong> enter</strong> to begin.</p></div>",13,3662,,,,,,,,,,,,,2034,13,2034,0,practice-no-stop-feedback,poldrack-single-stim,3,73829,0.0-3.0-0.0,go_nogo_deval,445,,<div class = centerbox><p class = block-text>We will now start with a practice session. In this practice concentrate on responding quickly and accurately to each stimuli unless it requires no response.</p><p class = block-text>Press enter to continue.</p></div>,13,2034,,,,,,,,,,,,,-1,-1,500,0,prompt_fixation,poldrack-single-stim,4,74331,0.0-3.0-1.0,go_nogo_deval,445,,<div class = centerbox><div class = fixation>+</div></div>,none,500,practice,,,,,,,,,,,,655,32,850,0,stim,poldrack-single-stim,5,75182,0.0-3.0-2.0,go_nogo_deval,445,,<img class = center src='/static/experiments/go_nogo_deval/images/blue_circle.png'></img>,32,850,practice,blue_circle,go1,32,0,0,,,,,,,-1,-1,1400,0,ITI,poldrack-single-stim,6,76585,0.0-3.0-3.0,go_nogo_deval,445,,<div></div>,32,1400,practice,,,,,,,,,,,,-1,-1,500,0,prompt_fixation,poldrack-single-stim,7,77086,0.0-3.0-4.0,go_nogo_deval,445,,<div class = centerbox><div class = fixation>+</div></div>,none,500,practice,,,,,,,,,,,,-1,-1,850,0,stim,poldrack-single-stim,8,77938,0.0-3.0-5.0,go_nogo_deval,445,,<img class = center src='/static/experiments/go_nogo_deval/images/red_triangle.png'></img>,32,850,practice,red_triangle,nogo2,-1,1,0,,,,,,,-1,-1,1400,0,ITI,poldrack-single-stim,9,79340,0.0-3.0-6.0,go_nogo_deval,445,,<div></div>,32,1400,practice,,,,,,,,,,,,-1,-1,500,0,prompt_fixation,poldrack-single-stim,10,79842,0.0-3.0-7.0,go_nogo_deval,445,,<div class = centerbox><div class = fixation>+</div></div>,none,500,practice,,,,,,,,,,,,-1,-1,850,0,stim,poldrack-single-stim,11,80692,0.0-3.0-8.0,go_nogo_deval,445,,<img class = center src='/static/experiments/go_nogo_deval/images/red_triangle.png'></img>,32,850,practice,red_triangle,nogo2,-1,2,0,,,,,,,-1,-1,1400,0,ITI,poldrack-single-stim,12,82094,0.0-3.0-9.0,go_nogo_deval,445,,<div></div>,32,1400,practice,,,,,,,,,,,,-1,-1,500,0,prompt_fixation,poldrack-single-stim,13,82596,0.0-3.0-10.0,go_nogo_deval,445,,<div class = centerbox><div class = fixation>+</div></div>,none,500,practice,,,,,,,,,,,,693,32,850,0,stim,poldrack-single-stim,14,83447,0.0-3.0-11.0,go_nogo_deval,445,,<img class = center src='/static/experiments/go_nogo_deval/images/purple_pentagon.png'></img>,32,850,practice,purple_pentagon,go2,32,3,0,,,,,,,-1,-1,1400,0,ITI,poldrack-single-stim,15,84849,0.0-3.0-12.0,go_nogo_deval,445,,<div></div>,32,1400,practice,,,,,,,,,,,,-1,-1,500,0,prompt_fixation,poldrack-single-stim,16,85351,0.0-3.0-13.0,go_nogo_deval,445,,<div class = centerbox><div class = fixation>+</div></div>,none,500,practice,,,,,,,,,,,,672,32,850,0,stim,poldrack-single-stim,17,86202,0.0-3.0-14.0,go_nogo_deval,445,,<img class = center src='/static/experiments/go_nogo_deval/images/blue_circle.png'></img>,32,850,practice,blue_circle,go1,32,4,0,,,,,,,-1,-1,1400,0,ITI,poldrack-single-stim,18,87604,0.0-3.0-15.0,go_nogo_deval,445,,<div></div>,32,1400,practice,,,,,,,,,,,,-1,-1,500,0,prompt_fixation,poldrack-single-stim,19,88105,0.0-3.0-16.0,go_nogo_deval,445,,<div class = centerbox><div class = fixation>+</div></div>,none,500,practice,,,,,,,,,,,,528,32,850,0,stim,poldrack-single-stim,20,88956,0.0-3.0-17.0,go_nogo_deval,445,,<img class = center src='/static/experiments/go_nogo_deval/images/green_rhombus.png'></img>,32,850,practice,green_rhombus,nogo1,-1,5,0,,,,,,,-1,-1,1400,0,ITI,poldrack-single-stim,21,90357,0.0-3.0-18.0,go_nogo_deval,445,,<div></div>,32,1400,practice,,,,,,,,,,,,-1,-1,500,0,prompt_fixation,poldrack-single-stim,22,90859,0.0-3.0-19.0,go_nogo_deval,445,,<div class = centerbox><div class = fixation>+</div></div>,none,500,practice,,,,,,,,,,,,-1,-1,850,0,stim,poldrack-single-stim,23,91712,0.0-3.0-20.0,go_nogo_deval,445,,<img class = center src='/static/experiments/go_nogo_deval/images/red_triangle.png'></img>,32,850,practice,red_triangle,nogo2,-1,6,0,,,,,,,-1,-1,1400,0,ITI,poldrack-single-stim,24,93114,0.0-3.0-21.0,go_nogo_deval,445,,<div></div>,32,1400,practice,,,,,,,,,,,,-1,-1,500,0,prompt_fixation,poldrack-single-stim,25,93616,0.0-3.0-22.0,go_nogo_deval,445,,<div class = centerbox><div class = fixation>+</div></div>,none,500,practice,,,,,,,,,,,,-1,-1,850,0,stim,poldrack-single-stim,26,94468,0.0-3.0-23.0,go_nogo_deval,445,,<img class = center src='/static/experiments/go_nogo_deval/images/green_rhombus.png'></img>,32,850,practice,green_rhombus,nogo1,-1,7,0,,,,,,,-1,-1,1400,0,ITI,poldrack-single-stim,27,95869,0.0-3.0-24.0,go_nogo_deval,445,,<div></div>,32,1400,practice,,,,,,,,,,,,-1,-1,500,0,prompt_fixation,poldrack-single-stim,28,96370,0.0-3.0-25.0,go_nogo_deval,445,,<div class = centerbox><div class = fixation>+</div></div>,none,500,practice,,,,,,,,,,,,511,32,850,0,stim,poldrack-single-stim,29,97221,0.0-3.0-26.0,go_nogo_deval,445,,<img class = center src='/static/experiments/go_nogo_deval/images/blue_circle.png'></img>,32,850,practice,blue_circle,go1,32,8,0,,,,,,,-1,-1,1400,0,ITI,poldrack-single-stim,30,98623,0.0-3.0-27.0,go_nogo_deval,445,,<div></div>,32,1400,practice,,,,,,,,,,,,-1,-1,500,0,prompt_fixation,poldrack-single-stim,31,99125,0.0-3.0-28.0,go_nogo_deval,445,,<div class = centerbox><div class = fixation>+</div></div>,none,500,practice,,,,,,,,,,,,735,32,850,0,stim,poldrack-single-stim,32,99976,0.0-3.0-29.0,go_nogo_deval,445,,<img class = center src='/static/experiments/go_nogo_deval/images/purple_pentagon.png'></img>,32,850,practice,purple_pentagon,go2,32,9,0,,,,,,,-1,-1,1400,0,ITI,poldrack-single-stim,33,101378,0.0-3.0-30.0,go_nogo_deval,445,,<div></div>,32,1400,practice,,,,,,,,,,,,-1,-1,500,0,prompt_fixation,poldrack-single-stim,34,101879,0.0-3.0-31.0,go_nogo_deval,445,,<div class = centerbox><div class = fixation>+</div></div>,none,500,practice,,,,,,,,,,,,827,32,850,0,stim,poldrack-single-stim,35,102731,0.0-3.0-32.0,go_nogo_deval,445,,<img class = center src='/static/experiments/go_nogo_deval/images/purple_pentagon.png'></img>,32,850,practice,purple_pentagon,go2,32,10,0,,,,,,,-1,-1,1400,0,ITI,poldrack-single-stim,36,104133,0.0-3.0-33.0,go_nogo_deval,445,,<div></div>,32,1400,practice,,,,,,,,,,,,-1,-1,500,0,prompt_fixation,poldrack-single-stim,37,104634,0.0-3.0-34.0,go_nogo_deval,445,,<div class = centerbox><div class = fixation>+</div></div>,none,500,practice,,,,,,,,,,,,458,32,850,0,stim,poldrack-single-stim,38,105485,0.0-3.0-35.0,go_nogo_deval,445,,<img class = center src='/static/experiments/go_nogo_deval/images/purple_pentagon.png'></img>,32,850,practice,purple_pentagon,go2,32,11,0,,,,,,,-1,-1,1400,0,ITI,poldrack-single-stim,39,106887,0.0-3.0-36.0,go_nogo_deval,445,,<div></div>,32,1400,practice,,,,,,,,,,,,-1,-1,500,0,prompt_fixation,poldrack-single-stim,40,107388,0.0-3.0-37.0,go_nogo_deval,445,,<div class = centerbox><div class = fixation>+</div></div>,none,500,practice,,,,,,,,,,,,403,32,850,0,stim,poldrack-single-stim,41,108240,0.0-3.0-38.0,go_nogo_deval,445,,<img class = center src='/static/experiments/go_nogo_deval/images/purple_pentagon.png'></img>,32,850,practice,purple_pentagon,go2,32,12,0,,,,,,,-1,-1,1400,0,ITI,poldrack-single-stim,42,109642,0.0-3.0-39.0,go_nogo_deval,445,,<div></div>,32,1400,practice,,,,,,,,,,,,-1,-1,500,0,prompt_fixation,poldrack-single-stim,43,110144,0.0-3.0-40.0,go_nogo_deval,445,,<div class = centerbox><div class = fixation>+</div></div>,none,500,practice,,,,,,,,,,,,426,32,850,0,stim,poldrack-single-stim,44,110996,0.0-3.0-41.0,go_nogo_deval,445,,<img class = center src='/static/experiments/go_nogo_deval/images/blue_circle.png'></img>,32,850,practice,blue_circle,go1,32,13,0,,,,,,,-1,-1,1400,0,ITI,poldrack-single-stim,45,112397,0.0-3.0-42.0,go_nogo_deval,445,,<div></div>,32,1400,practice,,,,,,,,,,,,-1,-1,500,0,prompt_fixation,poldrack-single-stim,46,112899,0.0-3.0-43.0,go_nogo_deval,445,,<div class = centerbox><div class = fixation>+</div></div>,none,500,practice,,,,,,,,,,,,361,32,850,0,stim,poldrack-single-stim,47,113750,0.0-3.0-44.0,go_nogo_deval,445,,<img class = center src='/static/experiments/go_nogo_deval/images/blue_circle.png'></img>,32,850,practice,blue_circle,go1,32,14,0,,,,,,,-1,-1,1400,0,ITI,poldrack-single-stim,48,115152,0.0-3.0-45.0,go_nogo_deval,445,,<div></div>,32,1400,practice,,,,,,,,,,,,-1,-1,500,0,prompt_fixation,poldrack-single-stim,49,115654,0.0-3.0-46.0,go_nogo_deval,445,,<div class = centerbox><div class = fixation>+</div></div>,none,500,practice,,,,,,,,,,,,-1,-1,850,0,stim,poldrack-single-stim,50,116506,0.0-3.0-47.0,go_nogo_deval,445,,<img class = center src='/static/experiments/go_nogo_deval/images/green_rhombus.png'></img>,32,850,practice,green_rhombus,nogo1,-1,15,0,,,,,,,-1,-1,1400,0,ITI,poldrack-single-stim,51,117909,0.0-3.0-48.0,go_nogo_deval,445,,<div></div>,32,1400,practice,,,,,,,,,,,,-1,-1,500,0,prompt_fixation,poldrack-single-stim,52,118411,0.0-3.0-49.0,go_nogo_deval,445,,<div class = centerbox><div class = fixation>+</div></div>,none,500,practice,,,,,,,,,,,,519,32,850,0,stim,poldrack-single-stim,53,119263,0.0-3.0-50.0,go_nogo_deval,445,,<img class = center src='/static/experiments/go_nogo_deval/images/purple_pentagon.png'></img>,32,850,practice,purple_pentagon,go2,32,16,0,,,,,,,-1,-1,1400,0,ITI,poldrack-single-stim,54,120664,0.0-3.0-51.0,go_nogo_deval,445,,<div></div>,32,1400,practice,,,,,,,,,,,,-1,-1,500,0,prompt_fixation,poldrack-single-stim,55,121165,0.0-3.0-52.0,go_nogo_deval,445,,<div class = centerbox><div class = fixation>+</div></div>,none,500,practice,,,,,,,,,,,,419,32,850,0,stim,poldrack-single-stim,56,122016,0.0-3.0-53.0,go_nogo_deval,445,,<img class = center src='/static/experiments/go_nogo_deval/images/blue_circle.png'></img>,32,850,practice,blue_circle,go1,32,17,0,,,,,,,-1,-1,1400,0,ITI,poldrack-single-stim,57,123418,0.0-3.0-54.0,go_nogo_deval,445,,<div></div>,32,1400,practice,,,,,,,,,,,,7312,13,7312,0,practice-no-stop-feedback,poldrack-single-stim,58,130731,0.0-4.0,go_nogo_deval,445,,<div class = centerbox><p class = block-text><br>Please take this time to read your feedback and to take a short break! Press enter to continue</p><p class = block-text><strong>Average reaction time:  554 ms. Accuracy: 94%</strong></p><p class = block-text>Done with this practice.</p></div>,13,7312,,,,,,,,,,,,,37889,13,37889,0,main_stop_intro_phase3,poldrack-single-stim,59,168622,0.0-5.0,go_nogo_deval,445,,"<div class = centerbox><p class = block-text>We will now start the main phase of the experiment.<br><br>These trials are the same as the trials that you have just completed. <br><br>The rules for each shape are as follows:  <br><ul list-text><li>circle: spacebar</li><li>pentagon: spacebar</li><li>rhombus: no response</li><li>triangle: no response</li></ul></p><p class = block-text>Remember these rules before you proceed, as they will no longer be presented during the trial.</p><p class = block-text>Press <strong> enter</strong> to begin.</p></div>",13,37889,,,,,,,,,,,,,1900,13,1900,0,practice-no-stop-feedback,poldrack-single-stim,60,170523,0.0-6.0-0.0,go_nogo_deval,445,,"<div class = centerbox><p class = block-text>We will now start with a test session. In this test, concentrate on responding quickly and accurately to each stimuli unless it requires no response.</p><p class = block-text>Press enter to continue.</p></div>",13,1900,,,,,,,,,,,,,-1,-1,500,0,fixation,poldrack-single-stim,61,171025,0.0-6.0-1.0,go_nogo_deval,445,,<div class = centerbox><div class = fixation>+</div></div>,none,500,test,,,,,,,,,,,,521,32,850,0,stim,poldrack-single-stim,62,171876,0.0-6.0-2.0,go_nogo_deval,445,,<img class = center src='/static/experiments/go_nogo_deval/images/purple_pentagon.png'></img>,32,850,test,purple_pentagon,go2,32,0,0,,,,,,,-1,-1,1400,0,ITI,poldrack-single-stim,63,173277,0.0-6.0-3.0,go_nogo_deval,445,,<div></div>,32,1400,test,,,,,,,,,,,,-1,-1,500,0,fixation,poldrack-single-stim,64,173780,0.0-6.0-4.0,go_nogo_deval,445,,<div class = centerbox><div class = fixation>+</div></div>,none,500,test,,,,,,,,,,,,747,32,850,0,stim,poldrack-single-stim,65,174631,0.0-6.0-5.0,go_nogo_deval,445,,<img class = center src='/static/experiments/go_nogo_deval/images/blue_circle.png'></img>,32,850,test,blue_circle,go1,32,1,0,,,,,,,-1,-1,1400,0,ITI,poldrack-single-stim,66,176032,0.0-6.0-6.0,go_nogo_deval,445,,<div></div>,32,1400,test,,,,,,,,,,,,-1,-1,500,0,fixation,poldrack-single-stim,67,176534,0.0-6.0-7.0,go_nogo_deval,445,,<div class = centerbox><div class = fixation>+</div></div>,none,500,test,,,,,,,,,,,,558,32,850,0,stim,poldrack-single-stim,68,177386,0.0-6.0-8.0,go_nogo_deval,445,,<img class = center src='/static/experiments/go_nogo_deval/images/purple_pentagon.png'></img>,32,850,test,purple_pentagon,go2,32,2,0,,,,,,,-1,-1,1400,0,ITI,poldrack-single-stim,69,178788,0.0-6.0-9.0,go_nogo_deval,445,,<div></div>,32,1400,test,,,,,,,,,,,,-1,-1,500,0,fixation,poldrack-single-stim,70,179289,0.0-6.0-10.0,go_nogo_deval,445,,<div class = centerbox><div class = fixation>+</div></div>,none,500,test,,,,,,,,,,,,-1,-1,850,0,stim,poldrack-single-stim,71,180141,0.0-6.0-11.0,go_nogo_deval,445,,<img class = center src='/static/experiments/go_nogo_deval/images/red_triangle.png'></img>,32,850,test,red_triangle,nogo2,-1,3,0,,,,,,,-1,-1,1400,0,ITI,poldrack-single-stim,72,181542,0.0-6.0-12.0,go_nogo_deval,445,,<div></div>,32,1400,test,,,,,,,,,,,,-1,-1,500,0,fixation,poldrack-single-stim,73,182044,0.0-6.0-13.0,go_nogo_deval,445,,<div class = centerbox><div class = fixation>+</div></div>,none,500,test,,,,,,,,,,,,-1,-1,850,0,stim,poldrack-single-stim,74,182896,0.0-6.0-14.0,go_nogo_deval,445,,<img class = center src='/static/experiments/go_nogo_deval/images/red_triangle.png'></img>,32,850,test,red_triangle,nogo2,-1,4,0,,,,,,,-1,-1,1400,0,ITI,poldrack-single-stim,75,184298,0.0-6.0-15.0,go_nogo_deval,445,,<div></div>,32,1400,test,,,,,,,,,,,,-1,-1,500,0,fixation,poldrack-single-stim,76,184799,0.0-6.0-16.0,go_nogo_deval,445,,<div class = centerbox><div class = fixation>+</div></div>,none,500,test,,,,,,,,,,,,562,32,850,0,stim,poldrack-single-stim,77,185651,0.0-6.0-17.0,go_nogo_deval,445,,<img class = center src='/static/experiments/go_nogo_deval/images/purple_pentagon.png'></img>,32,850,test,purple_pentagon,go2,32,5,0,,,,,,,-1,-1,1400,0,ITI,poldrack-single-stim,78,187052,0.0-6.0-18.0,go_nogo_deval,445,,<div></div>,32,1400,test,,,,,,,,,,,,-1,-1,500,0,fixation,poldrack-single-stim,79,187554,0.0-6.0-19.0,go_nogo_deval,445,,<div class = centerbox><div class = fixation>+</div></div>,none,500,test,,,,,,,,,,,,575,32,850,0,stim,poldrack-single-stim,80,188406,0.0-6.0-20.0,go_nogo_deval,445,,<img class = center src='/static/experiments/go_nogo_deval/images/purple_pentagon.png'></img>,32,850,test,purple_pentagon,go2,32,6,0,,,,,,,-1,-1,1400,0,ITI,poldrack-single-stim,81,189808,0.0-6.0-21.0,go_nogo_deval,445,,<div></div>,32,1400,test,,,,,,,,,,,,-1,-1,500,0,fixation,poldrack-single-stim,82,190309,0.0-6.0-22.0,go_nogo_deval,445,,<div class = centerbox><div class = fixation>+</div></div>,none,500,test,,,,,,,,,,,,-1,-1,850,0,stim,poldrack-single-stim,83,191161,0.0-6.0-23.0,go_nogo_deval,445,,<img class = center src='/static/experiments/go_nogo_deval/images/red_triangle.png'></img>,32,850,test,red_triangle,nogo2,-1,7,0,,,,,,,-1,-1,1400,0,ITI,poldrack-single-stim,84,192562,0.0-6.0-24.0,go_nogo_deval,445,,<div></div>,32,1400,test,,,,,,,,,,,,-1,-1,500,0,fixation,poldrack-single-stim,85,193063,0.0-6.0-25.0,go_nogo_deval,445,,<div class = centerbox><div class = fixation>+</div></div>,none,500,test,,,,,,,,,,,,656,32,850,0,stim,poldrack-single-stim,86,193916,0.0-6.0-26.0,go_nogo_deval,445,,<img class = center src='/static/experiments/go_nogo_deval/images/purple_pentagon.png'></img>,32,850,test,purple_pentagon,go2,32,8,0,,,,,,,-1,-1,1400,0,ITI,poldrack-single-stim,87,195318,0.0-6.0-27.0,go_nogo_deval,445,,<div></div>,32,1400,test,,,,,,,,,,,,-1,-1,500,0,fixation,poldrack-single-stim,88,195820,0.0-6.0-28.0,go_nogo_deval,445,,<div class = centerbox><div class = fixation>+</div></div>,none,500,test,,,,,,,,,,,,465,32,850,0,stim,poldrack-single-stim,89,196671,0.0-6.0-29.0,go_nogo_deval,445,,<img class = center src='/static/experiments/go_nogo_deval/images/purple_pentagon.png'></img>,32,850,test,purple_pentagon,go2,32,9,0,,,,,,,-1,-1,1400,0,ITI,poldrack-single-stim,90,198073,0.0-6.0-30.0,go_nogo_deval,445,,<div></div>,32,1400,test,,,,,,,,,,,,-1,-1,500,0,fixation,poldrack-single-stim,91,198575,0.0-6.0-31.0,go_nogo_deval,445,,<div class = centerbox><div class = fixation>+</div></div>,none,500,test,,,,,,,,,,,,388,32,850,0,stim,poldrack-single-stim,92,199426,0.0-6.0-32.0,go_nogo_deval,445,,<img class = center src='/static/experiments/go_nogo_deval/images/blue_circle.png'></img>,32,850,test,blue_circle,go1,32,10,0,,,,,,,-1,-1,1400,0,ITI,poldrack-single-stim,93,200827,0.0-6.0-33.0,go_nogo_deval,445,,<div></div>,32,1400,test,,,,,,,,,,,,-1,-1,500,0,fixation,poldrack-single-stim,94,201329,0.0-6.0-34.0,go_nogo_deval,445,,<div class = centerbox><div class = fixation>+</div></div>,none,500,test,,,,,,,,,,,,412,32,850,0,stim,poldrack-single-stim,95,202181,0.0-6.0-35.0,go_nogo_deval,445,,<img class = center src='/static/experiments/go_nogo_deval/images/purple_pentagon.png'></img>,32,850,test,purple_pentagon,go2,32,11,0,,,,,,,-1,-1,1400,0,ITI,poldrack-single-stim,96,203583,0.0-6.0-36.0,go_nogo_deval,445,,<div></div>,32,1400,test,,,,,,,,,,,,-1,-1,500,0,fixation,poldrack-single-stim,97,204083,0.0-6.0-37.0,go_nogo_deval,445,,<div class = centerbox><div class = fixation>+</div></div>,none,500,test,,,,,,,,,,,,-1,-1,850,0,stim,poldrack-single-stim,98,204936,0.0-6.0-38.0,go_nogo_deval,445,,<img class = center src='/static/experiments/go_nogo_deval/images/red_triangle.png'></img>,32,850,test,red_triangle,nogo2,-1,12,0,,,,,,,-1,-1,1400,0,ITI,poldrack-single-stim,99,206338,0.0-6.0-39.0,go_nogo_deval,445,,<div></div>,32,1400,test,,,,,,,,,,,,-1,-1,500,0,fixation,poldrack-single-stim,100,206840,0.0-6.0-40.0,go_nogo_deval,445,,<div class = centerbox><div class = fixation>+</div></div>,none,500,test,,,,,,,,,,,,-1,-1,850,0,stim,poldrack-single-stim,101,207692,0.0-6.0-41.0,go_nogo_deval,445,,<img class = center src='/static/experiments/go_nogo_deval/images/green_rhombus.png'></img>,32,850,test,green_rhombus,nogo1,-1,13,0,,,,,,,-1,-1,1400,0,ITI,poldrack-single-stim,102,209093,0.0-6.0-42.0,go_nogo_deval,445,,<div></div>,32,1400,test,,,,,,,,,,,,-1,-1,500,0,fixation,poldrack-single-stim,103,209594,0.0-6.0-43.0,go_nogo_deval,445,,<div class = centerbox><div class = fixation>+</div></div>,none,500,test,,,,,,,,,,,,-1,-1,850,0,stim,poldrack-single-stim,104,210446,0.0-6.0-44.0,go_nogo_deval,445,,<img class = center src='/static/experiments/go_nogo_deval/images/red_triangle.png'></img>,32,850,test,red_triangle,nogo2,-1,14,0,,,,,,,-1,-1,1400,0,ITI,poldrack-single-stim,105,211847,0.0-6.0-45.0,go_nogo_deval,445,,<div></div>,32,1400,test,,,,,,,,,,,,-1,-1,500,0,fixation,poldrack-single-stim,106,212349,0.0-6.0-46.0,go_nogo_deval,445,,<div class = centerbox><div class = fixation>+</div></div>,none,500,test,,,,,,,,,,,,553,32,850,0,stim,poldrack-single-stim,107,213200,0.0-6.0-47.0,go_nogo_deval,445,,<img class = center src='/static/experiments/go_nogo_deval/images/purple_pentagon.png'></img>,32,850,test,purple_pentagon,go2,32,15,0,,,,,,,-1,-1,1400,0,ITI,poldrack-single-stim,108,214602,0.0-6.0-48.0,go_nogo_deval,445,,<div></div>,32,1400,test,,,,,,,,,,,,-1,-1,500,0,fixation,poldrack-single-stim,109,215104,0.0-6.0-49.0,go_nogo_deval,445,,<div class = centerbox><div class = fixation>+</div></div>,none,500,test,,,,,,,,,,,,-1,-1,850,0,stim,poldrack-single-stim,110,215956,0.0-6.0-50.0,go_nogo_deval,445,,<img class = center src='/static/experiments/go_nogo_deval/images/red_triangle.png'></img>,32,850,test,red_triangle,nogo2,-1,16,0,,,,,,,-1,-1,1400,0,ITI,poldrack-single-stim,111,217358,0.0-6.0-51.0,go_nogo_deval,445,,<div></div>,32,1400,test,,,,,,,,,,,,-1,-1,500,0,fixation,poldrack-single-stim,112,217859,0.0-6.0-52.0,go_nogo_deval,445,,<div class = centerbox><div class = fixation>+</div></div>,none,500,test,,,,,,,,,,,,599,32,850,0,stim,poldrack-single-stim,113,218711,0.0-6.0-53.0,go_nogo_deval,445,,<img class = center src='/static/experiments/go_nogo_deval/images/purple_pentagon.png'></img>,32,850,test,purple_pentagon,go2,32,17,0,,,,,,,-1,-1,1400,0,ITI,poldrack-single-stim,114,220113,0.0-6.0-54.0,go_nogo_deval,445,,<div></div>,32,1400,test,,,,,,,,,,,,-1,-1,500,0,fixation,poldrack-single-stim,115,220614,0.0-6.0-55.0,go_nogo_deval,445,,<div class = centerbox><div class = fixation>+</div></div>,none,500,test,,,,,,,,,,,,522,32,850,0,stim,poldrack-single-stim,116,221466,0.0-6.0-56.0,go_nogo_deval,445,,<img class = center src='/static/experiments/go_nogo_deval/images/blue_circle.png'></img>,32,850,test,blue_circle,go1,32,18,0,,,,,,,-1,-1,1400,0,ITI,poldrack-single-stim,117,222868,0.0-6.0-57.0,go_nogo_deval,445,,<div></div>,32,1400,test,,,,,,,,,,,,-1,-1,500,0,fixation,poldrack-single-stim,118,223369,0.0-6.0-58.0,go_nogo_deval,445,,<div class = centerbox><div class = fixation>+</div></div>,none,500,test,,,,,,,,,,,,388,32,850,0,stim,poldrack-single-stim,119,224221,0.0-6.0-59.0,go_nogo_deval,445,,<img class = center src='/static/experiments/go_nogo_deval/images/purple_pentagon.png'></img>,32,850,test,purple_pentagon,go2,32,19,0,,,,,,,-1,-1,1400,0,ITI,poldrack-single-stim,120,225623,0.0-6.0-60.0,go_nogo_deval,445,,<div></div>,32,1400,test,,,,,,,,,,,,-1,-1,500,0,fixation,poldrack-single-stim,121,226124,0.0-6.0-61.0,go_nogo_deval,445,,<div class = centerbox><div class = fixation>+</div></div>,none,500,test,,,,,,,,,,,,-1,-1,850,0,stim,poldrack-single-stim,122,226976,0.0-6.0-62.0,go_nogo_deval,445,,<img class = center src='/static/experiments/go_nogo_deval/images/green_rhombus.png'></img>,32,850,test,green_rhombus,nogo1,-1,20,0,,,,,,,-1,-1,1400,0,ITI,poldrack-single-stim,123,228378,0.0-6.0-63.0,go_nogo_deval,445,,<div></div>,32,1400,test,,,,,,,,,,,,-1,-1,500,0,fixation,poldrack-single-stim,124,228879,0.0-6.0-64.0,go_nogo_deval,445,,<div class = centerbox><div class = fixation>+</div></div>,none,500,test,,,,,,,,,,,,414,32,850,0,stim,poldrack-single-stim,125,229730,0.0-6.0-65.0,go_nogo_deval,445,,<img class = center src='/static/experiments/go_nogo_deval/images/blue_circle.png'></img>,32,850,test,blue_circle,go1,32,21,0,,,,,,,-1,-1,1400,0,ITI,poldrack-single-stim,126,231132,0.0-6.0-66.0,go_nogo_deval,445,,<div></div>,32,1400,test,,,,,,,,,,,,-1,-1,500,0,fixation,poldrack-single-stim,127,231634,0.0-6.0-67.0,go_nogo_deval,445,,<div class = centerbox><div class = fixation>+</div></div>,none,500,test,,,,,,,,,,,,392,32,850,0,stim,poldrack-single-stim,128,232486,0.0-6.0-68.0,go_nogo_deval,445,,<img class = center src='/static/experiments/go_nogo_deval/images/purple_pentagon.png'></img>,32,850,test,purple_pentagon,go2,32,22,0,,,,,,,-1,-1,1400,0,ITI,poldrack-single-stim,129,233888,0.0-6.0-69.0,go_nogo_deval,445,,<div></div>,32,1400,test,,,,,,,,,,,,-1,-1,500,0,fixation,poldrack-single-stim,130,234389,0.0-6.0-70.0,go_nogo_deval,445,,<div class = centerbox><div class = fixation>+</div></div>,none,500,test,,,,,,,,,,,,573,32,850,0,stim,poldrack-single-stim,131,235241,0.0-6.0-71.0,go_nogo_deval,445,,<img class = center src='/static/experiments/go_nogo_deval/images/blue_circle.png'></img>,32,850,test,blue_circle,go1,32,23,0,,,,,,,-1,-1,1400,0,ITI,poldrack-single-stim,132,236644,0.0-6.0-72.0,go_nogo_deval,445,,<div></div>,32,1400,test,,,,,,,,,,,,-1,-1,500,0,fixation,poldrack-single-stim,133,237146,0.0-6.0-73.0,go_nogo_deval,445,,<div class = centerbox><div class = fixation>+</div></div>,none,500,test,,,,,,,,,,,,-1,-1,850,0,stim,poldrack-single-stim,134,237998,0.0-6.0-74.0,go_nogo_deval,445,,<img class = center src='/static/experiments/go_nogo_deval/images/green_rhombus.png'></img>,32,850,test,green_rhombus,nogo1,-1,24,0,,,,,,,-1,-1,1400,0,ITI,poldrack-single-stim,135,239399,0.0-6.0-75.0,go_nogo_deval,445,,<div></div>,32,1400,test,,,,,,,,,,,,-1,-1,500,0,fixation,poldrack-single-stim,136,239901,0.0-6.0-76.0,go_nogo_deval,445,,<div class = centerbox><div class = fixation>+</div></div>,none,500,test,,,,,,,,,,,,382,32,850,0,stim,poldrack-single-stim,137,240752,0.0-6.0-77.0,go_nogo_deval,445,,<img class = center src='/static/experiments/go_nogo_deval/images/blue_circle.png'></img>,32,850,test,blue_circle,go1,32,25,0,,,,,,,-1,-1,1400,0,ITI,poldrack-single-stim,138,242154,0.0-6.0-78.0,go_nogo_deval,445,,<div></div>,32,1400,test,,,,,,,,,,,,-1,-1,500,0,fixation,poldrack-single-stim,139,242655,0.0-6.0-79.0,go_nogo_deval,445,,<div class = centerbox><div class = fixation>+</div></div>,none,500,test,,,,,,,,,,,,418,32,850,0,stim,poldrack-single-stim,140,243507,0.0-6.0-80.0,go_nogo_deval,445,,<img class = center src='/static/experiments/go_nogo_deval/images/blue_circle.png'></img>,32,850,test,blue_circle,go1,32,26,0,,,,,,,-1,-1,1400,0,ITI,poldrack-single-stim,141,244908,0.0-6.0-81.0,go_nogo_deval,445,,<div></div>,32,1400,test,,,,,,,,,,,,-1,-1,500,0,fixation,poldrack-single-stim,142,245411,0.0-6.0-82.0,go_nogo_deval,445,,<div class = centerbox><div class = fixation>+</div></div>,none,500,test,,,,,,,,,,,,443,32,850,0,stim,poldrack-single-stim,143,246262,0.0-6.0-83.0,go_nogo_deval,445,,<img class = center src='/static/experiments/go_nogo_deval/images/purple_pentagon.png'></img>,32,850,test,purple_pentagon,go2,32,27,0,,,,,,,-1,-1,1400,0,ITI,poldrack-single-stim,144,247664,0.0-6.0-84.0,go_nogo_deval,445,,<div></div>,32,1400,test,,,,,,,,,,,,-1,-1,500,0,fixation,poldrack-single-stim,145,248166,0.0-6.0-85.0,go_nogo_deval,445,,<div class = centerbox><div class = fixation>+</div></div>,none,500,test,,,,,,,,,,,,387,32,850,0,stim,poldrack-single-stim,146,249018,0.0-6.0-86.0,go_nogo_deval,445,,<img class = center src='/static/experiments/go_nogo_deval/images/blue_circle.png'></img>,32,850,test,blue_circle,go1,32,28,0,,,,,,,-1,-1,1400,0,ITI,poldrack-single-stim,147,250420,0.0-6.0-87.0,go_nogo_deval,445,,<div></div>,32,1400,test,,,,,,,,,,,,-1,-1,500,0,fixation,poldrack-single-stim,148,250921,0.0-6.0-88.0,go_nogo_deval,445,,<div class = centerbox><div class = fixation>+</div></div>,none,500,test,,,,,,,,,,,,-1,-1,850,0,stim,poldrack-single-stim,149,251773,0.0-6.0-89.0,go_nogo_deval,445,,<img class = center src='/static/experiments/go_nogo_deval/images/green_rhombus.png'></img>,32,850,test,green_rhombus,nogo1,-1,29,0,,,,,,,-1,-1,1400,0,ITI,poldrack-single-stim,150,253174,0.0-6.0-90.0,go_nogo_deval,445,,<div></div>,32,1400,test,,,,,,,,,,,,-1,-1,500,0,fixation,poldrack-single-stim,151,253676,0.0-6.0-91.0,go_nogo_deval,445,,<div class = centerbox><div class = fixation>+</div></div>,none,500,test,,,,,,,,,,,,513,32,850,0,stim,poldrack-single-stim,152,254527,0.0-6.0-92.0,go_nogo_deval,445,,<img class = center src='/static/experiments/go_nogo_deval/images/blue_circle.png'></img>,32,850,test,blue_circle,go1,32,30,0,,,,,,,-1,-1,1400,0,ITI,poldrack-single-stim,153,255928,0.0-6.0-93.0,go_nogo_deval,445,,<div></div>,32,1400,test,,,,,,,,,,,,-1,-1,500,0,fixation,poldrack-single-stim,154,256430,0.0-6.0-94.0,go_nogo_deval,445,,<div class = centerbox><div class = fixation>+</div></div>,none,500,test,,,,,,,,,,,,447,32,850,0,stim,poldrack-single-stim,155,257281,0.0-6.0-95.0,go_nogo_deval,445,,<img class = center src='/static/experiments/go_nogo_deval/images/blue_circle.png'></img>,32,850,test,blue_circle,go1,32,31,0,,,,,,,-1,-1,1400,0,ITI,poldrack-single-stim,156,258682,0.0-6.0-96.0,go_nogo_deval,445,,<div></div>,32,1400,test,,,,,,,,,,,,-1,-1,500,0,fixation,poldrack-single-stim,157,259184,0.0-6.0-97.0,go_nogo_deval,445,,<div class = centerbox><div class = fixation>+</div></div>,none,500,test,,,,,,,,,,,,-1,-1,850,0,stim,poldrack-single-stim,158,260035,0.0-6.0-98.0,go_nogo_deval,445,,<img class = center src='/static/experiments/go_nogo_deval/images/green_rhombus.png'></img>,32,850,test,green_rhombus,nogo1,-1,32,0,,,,,,,-1,-1,1400,0,ITI,poldrack-single-stim,159,261437,0.0-6.0-99.0,go_nogo_deval,445,,<div></div>,32,1400,test,,,,,,,,,,,,-1,-1,500,0,fixation,poldrack-single-stim,160,261939,0.0-6.0-100.0,go_nogo_deval,445,,<div class = centerbox><div class = fixation>+</div></div>,none,500,test,,,,,,,,,,,,553,32,850,0,stim,poldrack-single-stim,161,262791,0.0-6.0-101.0,go_nogo_deval,445,,<img class = center src='/static/experiments/go_nogo_deval/images/blue_circle.png'></img>,32,850,test,blue_circle,go1,32,33,0,,,,,,,-1,-1,1400,0,ITI,poldrack-single-stim,162,264191,0.0-6.0-102.0,go_nogo_deval,445,,<div></div>,32,1400,test,,,,,,,,,,,,-1,-1,500,0,fixation,poldrack-single-stim,163,264693,0.0-6.0-103.0,go_nogo_deval,445,,<div class = centerbox><div class = fixation>+</div></div>,none,500,test,,,,,,,,,,,,-1,-1,850,0,stim,poldrack-single-stim,164,265545,0.0-6.0-104.0,go_nogo_deval,445,,<img class = center src='/static/experiments/go_nogo_deval/images/green_rhombus.png'></img>,32,850,test,green_rhombus,nogo1,-1,34,0,,,,,,,-1,-1,1400,0,ITI,poldrack-single-stim,165,266947,0.0-6.0-105.0,go_nogo_deval,445,,<div></div>,32,1400,test,,,,,,,,,,,,-1,-1,500,0,fixation,poldrack-single-stim,166,267448,0.0-6.0-106.0,go_nogo_deval,445,,<div class = centerbox><div class = fixation>+</div></div>,none,500,test,,,,,,,,,,,,-1,-1,850,0,stim,poldrack-single-stim,167,268300,0.0-6.0-107.0,go_nogo_deval,445,,<img class = center src='/static/experiments/go_nogo_deval/images/red_triangle.png'></img>,32,850,test,red_triangle,nogo2,-1,35,0,,,,,,,-1,-1,1400,0,ITI,poldrack-single-stim,168,269701,0.0-6.0-108.0,go_nogo_deval,445,,<div></div>,32,1400,test,,,,,,,,,,,,-1,-1,500,0,fixation,poldrack-single-stim,169,270203,0.0-6.0-109.0,go_nogo_deval,445,,<div class = centerbox><div class = fixation>+</div></div>,none,500,test,,,,,,,,,,,,568,32,850,0,stim,poldrack-single-stim,170,271055,0.0-6.0-110.0,go_nogo_deval,445,,<img class = center src='/static/experiments/go_nogo_deval/images/purple_pentagon.png'></img>,32,850,test,purple_pentagon,go2,32,36,0,,,,,,,-1,-1,1400,0,ITI,poldrack-single-stim,171,272457,0.0-6.0-111.0,go_nogo_deval,445,,<div></div>,32,1400,test,,,,,,,,,,,,-1,-1,500,0,fixation,poldrack-single-stim,172,272959,0.0-6.0-112.0,go_nogo_deval,445,,<div class = centerbox><div class = fixation>+</div></div>,none,500,test,,,,,,,,,,,,637,32,850,0,stim,poldrack-single-stim,173,273810,0.0-6.0-113.0,go_nogo_deval,445,,<img class = center src='/static/experiments/go_nogo_deval/images/blue_circle.png'></img>,32,850,test,blue_circle,go1,32,37,0,,,,,,,-1,-1,1400,0,ITI,poldrack-single-stim,174,275211,0.0-6.0-114.0,go_nogo_deval,445,,<div></div>,32,1400,test,,,,,,,,,,,,-1,-1,500,0,fixation,poldrack-single-stim,175,275712,0.0-6.0-115.0,go_nogo_deval,445,,<div class = centerbox><div class = fixation>+</div></div>,none,500,test,,,,,,,,,,,,-1,-1,850,0,stim,poldrack-single-stim,176,276564,0.0-6.0-116.0,go_nogo_deval,445,,<img class = center src='/static/experiments/go_nogo_deval/images/red_triangle.png'></img>,32,850,test,red_triangle,nogo2,-1,38,0,,,,,,,-1,-1,1400,0,ITI,poldrack-single-stim,177,277966,0.0-6.0-117.0,go_nogo_deval,445,,<div></div>,32,1400,test,,,,,,,,,,,,-1,-1,500,0,fixation,poldrack-single-stim,178,278468,0.0-6.0-118.0,go_nogo_deval,445,,<div class = centerbox><div class = fixation>+</div></div>,none,500,test,,,,,,,,,,,,775,32,850,0,stim,poldrack-single-stim,179,279319,0.0-6.0-119.0,go_nogo_deval,445,,<img class = center src='/static/experiments/go_nogo_deval/images/purple_pentagon.png'></img>,32,850,test,purple_pentagon,go2,32,39,0,,,,,,,-1,-1,1400,0,ITI,poldrack-single-stim,180,280720,0.0-6.0-120.0,go_nogo_deval,445,,<div></div>,32,1400,test,,,,,,,,,,,,-1,-1,500,0,fixation,poldrack-single-stim,181,281222,0.0-6.0-121.0,go_nogo_deval,445,,<div class = centerbox><div class = fixation>+</div></div>,none,500,test,,,,,,,,,,,,-1,-1,850,0,stim,poldrack-single-stim,182,282074,0.0-6.0-122.0,go_nogo_deval,445,,<img class = center src='/static/experiments/go_nogo_deval/images/green_rhombus.png'></img>,32,850,test,green_rhombus,nogo1,-1,40,0,,,,,,,-1,-1,1400,0,ITI,poldrack-single-stim,183,283475,0.0-6.0-123.0,go_nogo_deval,445,,<div></div>,32,1400,test,,,,,,,,,,,,-1,-1,500,0,fixation,poldrack-single-stim,184,283976,0.0-6.0-124.0,go_nogo_deval,445,,<div class = centerbox><div class = fixation>+</div></div>,none,500,test,,,,,,,,,,,,499,32,850,0,stim,poldrack-single-stim,185,284827,0.0-6.0-125.0,go_nogo_deval,445,,<img class = center src='/static/experiments/go_nogo_deval/images/purple_pentagon.png'></img>,32,850,test,purple_pentagon,go2,32,41,0,,,,,,,-1,-1,1400,0,ITI,poldrack-single-stim,186,286229,0.0-6.0-126.0,go_nogo_deval,445,,<div></div>,32,1400,test,,,,,,,,,,,,-1,-1,500,0,fixation,poldrack-single-stim,187,286731,0.0-6.0-127.0,go_nogo_deval,445,,<div class = centerbox><div class = fixation>+</div></div>,none,500,test,,,,,,,,,,,,476,32,850,0,stim,poldrack-single-stim,188,287583,0.0-6.0-128.0,go_nogo_deval,445,,<img class = center src='/static/experiments/go_nogo_deval/images/blue_circle.png'></img>,32,850,test,blue_circle,go1,32,42,0,,,,,,,-1,-1,1400,0,ITI,poldrack-single-stim,189,288985,0.0-6.0-129.0,go_nogo_deval,445,,<div></div>,32,1400,test,,,,,,,,,,,,-1,-1,500,0,fixation,poldrack-single-stim,190,289487,0.0-6.0-130.0,go_nogo_deval,445,,<div class = centerbox><div class = fixation>+</div></div>,none,500,test,,,,,,,,,,,,500,32,850,0,stim,poldrack-single-stim,191,290339,0.0-6.0-131.0,go_nogo_deval,445,,<img class = center src='/static/experiments/go_nogo_deval/images/blue_circle.png'></img>,32,850,test,blue_circle,go1,32,43,0,,,,,,,-1,-1,1400,0,ITI,poldrack-single-stim,192,291740,0.0-6.0-132.0,go_nogo_deval,445,,<div></div>,32,1400,test,,,,,,,,,,,,-1,-1,500,0,fixation,poldrack-single-stim,193,292241,0.0-6.0-133.0,go_nogo_deval,445,,<div class = centerbox><div class = fixation>+</div></div>,none,500,test,,,,,,,,,,,,-1,-1,850,0,stim,poldrack-single-stim,194,293092,0.0-6.0-134.0,go_nogo_deval,445,,<img class = center src='/static/experiments/go_nogo_deval/images/green_rhombus.png'></img>,32,850,test,green_rhombus,nogo1,-1,44,0,,,,,,,-1,-1,1400,0,ITI,poldrack-single-stim,195,294494,0.0-6.0-135.0,go_nogo_deval,445,,<div></div>,32,1400,test,,,,,,,,,,,,-1,-1,500,0,fixation,poldrack-single-stim,196,294995,0.0-6.0-136.0,go_nogo_deval,445,,<div class = centerbox><div class = fixation>+</div></div>,none,500,test,,,,,,,,,,,,505,32,850,0,stim,poldrack-single-stim,197,295847,0.0-6.0-137.0,go_nogo_deval,445,,<img class = center src='/static/experiments/go_nogo_deval/images/blue_circle.png'></img>,32,850,test,blue_circle,go1,32,45,0,,,,,,,-1,-1,1400,0,ITI,poldrack-single-stim,198,297249,0.0-6.0-138.0,go_nogo_deval,445,,<div></div>,32,1400,test,,,,,,,,,,,,-1,-1,500,0,fixation,poldrack-single-stim,199,297750,0.0-6.0-139.0,go_nogo_deval,445,,<div class = centerbox><div class = fixation>+</div></div>,none,500,test,,,,,,,,,,,,483,32,850,0,stim,poldrack-single-stim,200,298602,0.0-6.0-140.0,go_nogo_deval,445,,<img class = center src='/static/experiments/go_nogo_deval/images/blue_circle.png'></img>,32,850,test,blue_circle,go1,32,46,0,,,,,,,-1,-1,1400,0,ITI,poldrack-single-stim,201,300004,0.0-6.0-141.0,go_nogo_deval,445,,<div></div>,32,1400,test,,,,,,,,,,,,-1,-1,500,0,fixation,poldrack-single-stim,202,300505,0.0-6.0-142.0,go_nogo_deval,445,,<div class = centerbox><div class = fixation>+</div></div>,none,500,test,,,,,,,,,,,,507,32,850,0,stim,poldrack-single-stim,203,301356,0.0-6.0-143.0,go_nogo_deval,445,,<img class = center src='/static/experiments/go_nogo_deval/images/purple_pentagon.png'></img>,32,850,test,purple_pentagon,go2,32,47,0,,,,,,,-1,-1,1400,0,ITI,poldrack-single-stim,204,302757,0.0-6.0-144.0,go_nogo_deval,445,,<div></div>,32,1400,test,,,,,,,,,,,,83167,13,83167,0,practice-no-stop-feedback,poldrack-single-stim,205,385928,0.0-6.1-0.1,go_nogo_deval,445,,"<div class = centerbox><p class = block-text><br>Please take this time to read your feedback and to take a short break! Press enter to continue</p><p class = block-text><strong>Average reaction time:  513 ms. Accuracy: 100%</strong></p><p class = block-text><strong>You have been responding too slowly, please respond to each shape (circle, triangle, rhombus, pentagon) as quickly and as accurately as possible.</strong></p></div>",13,83167,,,,,,,,,,,,,-1,-1,500,0,fixation,poldrack-single-stim,206,386430,0.0-6.1-1.1,go_nogo_deval,445,,<div class = centerbox><div class = fixation>+</div></div>,none,500,test,,,,,,,,,,,,533,32,850,0,stim,poldrack-single-stim,207,387281,0.0-6.1-2.1,go_nogo_deval,445,,<img class = center src='/static/experiments/go_nogo_deval/images/blue_circle.png'></img>,32,850,test,blue_circle,go1,32,0,1,,,,,,,-1,-1,1400,0,ITI,poldrack-single-stim,208,388683,0.0-6.1-3.1,go_nogo_deval,445,,<div></div>,32,1400,test,,,,,,,,,,,,-1,-1,500,0,fixation,poldrack-single-stim,209,389185,0.0-6.1-4.1,go_nogo_deval,445,,<div class = centerbox><div class = fixation>+</div></div>,none,500,test,,,,,,,,,,,,-1,-1,850,0,stim,poldrack-single-stim,210,390036,0.0-6.1-5.1,go_nogo_deval,445,,<img class = center src='/static/experiments/go_nogo_deval/images/red_triangle.png'></img>,32,850,test,red_triangle,nogo2,-1,1,1,,,,,,,-1,-1,1400,0,ITI,poldrack-single-stim,211,391437,0.0-6.1-6.1,go_nogo_deval,445,,<div></div>,32,1400,test,,,,,,,,,,,,-1,-1,500,0,fixation,poldrack-single-stim,212,391939,0.0-6.1-7.1,go_nogo_deval,445,,<div class = centerbox><div class = fixation>+</div></div>,none,500,test,,,,,,,,,,,,446,32,850,0,stim,poldrack-single-stim,213,392791,0.0-6.1-8.1,go_nogo_deval,445,,<img class = center src='/static/experiments/go_nogo_deval/images/purple_pentagon.png'></img>,32,850,test,purple_pentagon,go2,32,2,1,,,,,,,-1,-1,1400,0,ITI,poldrack-single-stim,214,394193,0.0-6.1-9.1,go_nogo_deval,445,,<div></div>,32,1400,test,,,,,,,,,,,,-1,-1,500,0,fixation,poldrack-single-stim,215,394694,0.0-6.1-10.1,go_nogo_deval,445,,<div class = centerbox><div class = fixation>+</div></div>,none,500,test,,,,,,,,,,,,482,32,850,0,stim,poldrack-single-stim,216,395546,0.0-6.1-11.1,go_nogo_deval,445,,<img class = center src='/static/experiments/go_nogo_deval/images/blue_circle.png'></img>,32,850,test,blue_circle,go1,32,3,1,,,,,,,-1,-1,1400,0,ITI,poldrack-single-stim,217,396947,0.0-6.1-12.1,go_nogo_deval,445,,<div></div>,32,1400,test,,,,,,,,,,,,-1,-1,500,0,fixation,poldrack-single-stim,218,397449,0.0-6.1-13.1,go_nogo_deval,445,,<div class = centerbox><div class = fixation>+</div></div>,none,500,test,,,,,,,,,,,,427,32,850,0,stim,poldrack-single-stim,219,398301,0.0-6.1-14.1,go_nogo_deval,445,,<img class = center src='/static/experiments/go_nogo_deval/images/purple_pentagon.png'></img>,32,850,test,purple_pentagon,go2,32,4,1,,,,,,,-1,-1,1400,0,ITI,poldrack-single-stim,220,399703,0.0-6.1-15.1,go_nogo_deval,445,,<div></div>,32,1400,test,,,,,,,,,,,,-1,-1,500,0,fixation,poldrack-single-stim,221,400204,0.0-6.1-16.1,go_nogo_deval,445,,<div class = centerbox><div class = fixation>+</div></div>,none,500,test,,,,,,,,,,,,417,32,850,0,stim,poldrack-single-stim,222,401055,0.0-6.1-17.1,go_nogo_deval,445,,<img class = center src='/static/experiments/go_nogo_deval/images/purple_pentagon.png'></img>,32,850,test,purple_pentagon,go2,32,5,1,,,,,,,-1,-1,1400,0,ITI,poldrack-single-stim,223,402456,0.0-6.1-18.1,go_nogo_deval,445,,<div></div>,32,1400,test,,,,,,,,,,,,-1,-1,500,0,fixation,poldrack-single-stim,224,402958,0.0-6.1-19.1,go_nogo_deval,445,,<div class = centerbox><div class = fixation>+</div></div>,none,500,test,,,,,,,,,,,,373,32,850,0,stim,poldrack-single-stim,225,403810,0.0-6.1-20.1,go_nogo_deval,445,,<img class = center src='/static/experiments/go_nogo_deval/images/blue_circle.png'></img>,32,850,test,blue_circle,go1,32,6,1,,,,,,,-1,-1,1400,0,ITI,poldrack-single-stim,226,405212,0.0-6.1-21.1,go_nogo_deval,445,,<div></div>,32,1400,test,,,,,,,,,,,,-1,-1,500,0,fixation,poldrack-single-stim,227,405714,0.0-6.1-22.1,go_nogo_deval,445,,<div class = centerbox><div class = fixation>+</div></div>,none,500,test,,,,,,,,,,,,-1,-1,850,0,stim,poldrack-single-stim,228,406566,0.0-6.1-23.1,go_nogo_deval,445,,<img class = center src='/static/experiments/go_nogo_deval/images/green_rhombus.png'></img>,32,850,test,green_rhombus,nogo1,-1,7,1,,,,,,,-1,-1,1400,0,ITI,poldrack-single-stim,229,407967,0.0-6.1-24.1,go_nogo_deval,445,,<div></div>,32,1400,test,,,,,,,,,,,,-1,-1,500,0,fixation,poldrack-single-stim,230,408467,0.0-6.1-25.1,go_nogo_deval,445,,<div class = centerbox><div class = fixation>+</div></div>,none,500,test,,,,,,,,,,,,422,32,850,0,stim,poldrack-single-stim,231,409319,0.0-6.1-26.1,go_nogo_deval,445,,<img class = center src='/static/experiments/go_nogo_deval/images/blue_circle.png'></img>,32,850,test,blue_circle,go1,32,8,1,,,,,,,-1,-1,1400,0,ITI,poldrack-single-stim,232,410720,0.0-6.1-27.1,go_nogo_deval,445,,<div></div>,32,1400,test,,,,,,,,,,,,-1,-1,500,0,fixation,poldrack-single-stim,233,411222,0.0-6.1-28.1,go_nogo_deval,445,,<div class = centerbox><div class = fixation>+</div></div>,none,500,test,,,,,,,,,,,,434,32,850,0,stim,poldrack-single-stim,234,412073,0.0-6.1-29.1,go_nogo_deval,445,,<img class = center src='/static/experiments/go_nogo_deval/images/blue_circle.png'></img>,32,850,test,blue_circle,go1,32,9,1,,,,,,,-1,-1,1400,0,ITI,poldrack-single-stim,235,413475,0.0-6.1-30.1,go_nogo_deval,445,,<div></div>,32,1400,test,,,,,,,,,,,,-1,-1,500,0,fixation,poldrack-single-stim,236,413977,0.0-6.1-31.1,go_nogo_deval,445,,<div class = centerbox><div class = fixation>+</div></div>,none,500,test,,,,,,,,,,,,414,32,850,0,stim,poldrack-single-stim,237,414829,0.0-6.1-32.1,go_nogo_deval,445,,<img class = center src='/static/experiments/go_nogo_deval/images/purple_pentagon.png'></img>,32,850,test,purple_pentagon,go2,32,10,1,,,,,,,-1,-1,1400,0,ITI,poldrack-single-stim,238,416229,0.0-6.1-33.1,go_nogo_deval,445,,<div></div>,32,1400,test,,,,,,,,,,,,-1,-1,500,0,fixation,poldrack-single-stim,239,416731,0.0-6.1-34.1,go_nogo_deval,445,,<div class = centerbox><div class = fixation>+</div></div>,none,500,test,,,,,,,,,,,,640,32,850,0,stim,poldrack-single-stim,240,417583,0.0-6.1-35.1,go_nogo_deval,445,,<img class = center src='/static/experiments/go_nogo_deval/images/blue_circle.png'></img>,32,850,test,blue_circle,go1,32,11,1,,,,,,,-1,-1,1400,0,ITI,poldrack-single-stim,241,418985,0.0-6.1-36.1,go_nogo_deval,445,,<div></div>,32,1400,test,,,,,,,,,,,,-1,-1,500,0,fixation,poldrack-single-stim,242,419486,0.0-6.1-37.1,go_nogo_deval,445,,<div class = centerbox><div class = fixation>+</div></div>,none,500,test,,,,,,,,,,,,429,32,850,0,stim,poldrack-single-stim,243,420338,0.0-6.1-38.1,go_nogo_deval,445,,<img class = center src='/static/experiments/go_nogo_deval/images/purple_pentagon.png'></img>,32,850,test,purple_pentagon,go2,32,12,1,,,,,,,-1,-1,1400,0,ITI,poldrack-single-stim,244,421739,0.0-6.1-39.1,go_nogo_deval,445,,<div></div>,32,1400,test,,,,,,,,,,,,-1,-1,500,0,fixation,poldrack-single-stim,245,422241,0.0-6.1-40.1,go_nogo_deval,445,,<div class = centerbox><div class = fixation>+</div></div>,none,500,test,,,,,,,,,,,,-1,-1,850,0,stim,poldrack-single-stim,246,423093,0.0-6.1-41.1,go_nogo_deval,445,,<img class = center src='/static/experiments/go_nogo_deval/images/green_rhombus.png'></img>,32,850,test,green_rhombus,nogo1,-1,13,1,,,,,,,-1,-1,1400,0,ITI,poldrack-single-stim,247,424495,0.0-6.1-42.1,go_nogo_deval,445,,<div></div>,32,1400,test,,,,,,,,,,,,-1,-1,500,0,fixation,poldrack-single-stim,248,424996,0.0-6.1-43.1,go_nogo_deval,445,,<div class = centerbox><div class = fixation>+</div></div>,none,500,test,,,,,,,,,,,,431,32,850,0,stim,poldrack-single-stim,249,425848,0.0-6.1-44.1,go_nogo_deval,445,,<img class = center src='/static/experiments/go_nogo_deval/images/blue_circle.png'></img>,32,850,test,blue_circle,go1,32,14,1,,,,,,,-1,-1,1400,0,ITI,poldrack-single-stim,250,427249,0.0-6.1-45.1,go_nogo_deval,445,,<div></div>,32,1400,test,,,,,,,,,,,,-1,-1,500,0,fixation,poldrack-single-stim,251,427750,0.0-6.1-46.1,go_nogo_deval,445,,<div class = centerbox><div class = fixation>+</div></div>,none,500,test,,,,,,,,,,,,522,32,850,0,stim,poldrack-single-stim,252,428602,0.0-6.1-47.1,go_nogo_deval,445,,<img class = center src='/static/experiments/go_nogo_deval/images/purple_pentagon.png'></img>,32,850,test,purple_pentagon,go2,32,15,1,,,,,,,-1,-1,1400,0,ITI,poldrack-single-stim,253,430004,0.0-6.1-48.1,go_nogo_deval,445,,<div></div>,32,1400,test,,,,,,,,,,,,-1,-1,500,0,fixation,poldrack-single-stim,254,430506,0.0-6.1-49.1,go_nogo_deval,445,,<div class = centerbox><div class = fixation>+</div></div>,none,500,test,,,,,,,,,,,,636,32,850,0,stim,poldrack-single-stim,255,431357,0.0-6.1-50.1,go_nogo_deval,445,,<img class = center src='/static/experiments/go_nogo_deval/images/blue_circle.png'></img>,32,850,test,blue_circle,go1,32,16,1,,,,,,,-1,-1,1400,0,ITI,poldrack-single-stim,256,432758,0.0-6.1-51.1,go_nogo_deval,445,,<div></div>,32,1400,test,,,,,,,,,,,,-1,-1,500,0,fixation,poldrack-single-stim,257,433259,0.0-6.1-52.1,go_nogo_deval,445,,<div class = centerbox><div class = fixation>+</div></div>,none,500,test,,,,,,,,,,,,369,32,850,0,stim,poldrack-single-stim,258,434110,0.0-6.1-53.1,go_nogo_deval,445,,<img class = center src='/static/experiments/go_nogo_deval/images/blue_circle.png'></img>,32,850,test,blue_circle,go1,32,17,1,,,,,,,-1,-1,1400,0,ITI,poldrack-single-stim,259,435512,0.0-6.1-54.1,go_nogo_deval,445,,<div></div>,32,1400,test,,,,,,,,,,,,-1,-1,500,0,fixation,poldrack-single-stim,260,436014,0.0-6.1-55.1,go_nogo_deval,445,,<div class = centerbox><div class = fixation>+</div></div>,none,500,test,,,,,,,,,,,,-1,-1,850,0,stim,poldrack-single-stim,261,436865,0.0-6.1-56.1,go_nogo_deval,445,,<img class = center src='/static/experiments/go_nogo_deval/images/green_rhombus.png'></img>,32,850,test,green_rhombus,nogo1,-1,18,1,,,,,,,-1,-1,1400,0,ITI,poldrack-single-stim,262,438267,0.0-6.1-57.1,go_nogo_deval,445,,<div></div>,32,1400,test,,,,,,,,,,,,-1,-1,500,0,fixation,poldrack-single-stim,263,438769,0.0-6.1-58.1,go_nogo_deval,445,,<div class = centerbox><div class = fixation>+</div></div>,none,500,test,,,,,,,,,,,,405,32,850,0,stim,poldrack-single-stim,264,439620,0.0-6.1-59.1,go_nogo_deval,445,,<img class = center src='/static/experiments/go_nogo_deval/images/purple_pentagon.png'></img>,32,850,test,purple_pentagon,go2,32,19,1,,,,,,,-1,-1,1400,0,ITI,poldrack-single-stim,265,441021,0.0-6.1-60.1,go_nogo_deval,445,,<div></div>,32,1400,test,,,,,,,,,,,,-1,-1,500,0,fixation,poldrack-single-stim,266,441523,0.0-6.1-61.1,go_nogo_deval,445,,<div class = centerbox><div class = fixation>+</div></div>,none,500,test,,,,,,,,,,,,-1,-1,850,0,stim,poldrack-single-stim,267,442375,0.0-6.1-62.1,go_nogo_deval,445,,<img class = center src='/static/experiments/go_nogo_deval/images/red_triangle.png'></img>,32,850,test,red_triangle,nogo2,-1,20,1,,,,,,,-1,-1,1400,0,ITI,poldrack-single-stim,268,443776,0.0-6.1-63.1,go_nogo_deval,445,,<div></div>,32,1400,test,,,,,,,,,,,,-1,-1,500,0,fixation,poldrack-single-stim,269,444278,0.0-6.1-64.1,go_nogo_deval,445,,<div class = centerbox><div class = fixation>+</div></div>,none,500,test,,,,,,,,,,,,398,32,850,0,stim,poldrack-single-stim,270,445129,0.0-6.1-65.1,go_nogo_deval,445,,<img class = center src='/static/experiments/go_nogo_deval/images/purple_pentagon.png'></img>,32,850,test,purple_pentagon,go2,32,21,1,,,,,,,-1,-1,1400,0,ITI,poldrack-single-stim,271,446530,0.0-6.1-66.1,go_nogo_deval,445,,<div></div>,32,1400,test,,,,,,,,,,,,-1,-1,500,0,fixation,poldrack-single-stim,272,447031,0.0-6.1-67.1,go_nogo_deval,445,,<div class = centerbox><div class = fixation>+</div></div>,none,500,test,,,,,,,,,,,,445,32,850,0,stim,poldrack-single-stim,273,447882,0.0-6.1-68.1,go_nogo_deval,445,,<img class = center src='/static/experiments/go_nogo_deval/images/blue_circle.png'></img>,32,850,test,blue_circle,go1,32,22,1,,,,,,,-1,-1,1400,0,ITI,poldrack-single-stim,274,449284,0.0-6.1-69.1,go_nogo_deval,445,,<div></div>,32,1400,test,,,,,,,,,,,,-1,-1,500,0,fixation,poldrack-single-stim,275,449785,0.0-6.1-70.1,go_nogo_deval,445,,<div class = centerbox><div class = fixation>+</div></div>,none,500,test,,,,,,,,,,,,-1,-1,850,0,stim,poldrack-single-stim,276,450637,0.0-6.1-71.1,go_nogo_deval,445,,<img class = center src='/static/experiments/go_nogo_deval/images/red_triangle.png'></img>,32,850,test,red_triangle,nogo2,-1,23,1,,,,,,,-1,-1,1400,0,ITI,poldrack-single-stim,277,452039,0.0-6.1-72.1,go_nogo_deval,445,,<div></div>,32,1400,test,,,,,,,,,,,,-1,-1,500,0,fixation,poldrack-single-stim,278,452540,0.0-6.1-73.1,go_nogo_deval,445,,<div class = centerbox><div class = fixation>+</div></div>,none,500,test,,,,,,,,,,,,-1,-1,850,0,stim,poldrack-single-stim,279,453392,0.0-6.1-74.1,go_nogo_deval,445,,<img class = center src='/static/experiments/go_nogo_deval/images/green_rhombus.png'></img>,32,850,test,green_rhombus,nogo1,-1,24,1,,,,,,,-1,-1,1400,0,ITI,poldrack-single-stim,280,454794,0.0-6.1-75.1,go_nogo_deval,445,,<div></div>,32,1400,test,,,,,,,,,,,,-1,-1,500,0,fixation,poldrack-single-stim,281,455295,0.0-6.1-76.1,go_nogo_deval,445,,<div class = centerbox><div class = fixation>+</div></div>,none,500,test,,,,,,,,,,,,-1,-1,850,0,stim,poldrack-single-stim,282,456147,0.0-6.1-77.1,go_nogo_deval,445,,<img class = center src='/static/experiments/go_nogo_deval/images/red_triangle.png'></img>,32,850,test,red_triangle,nogo2,-1,25,1,,,,,,,-1,-1,1400,0,ITI,poldrack-single-stim,283,457549,0.0-6.1-78.1,go_nogo_deval,445,,<div></div>,32,1400,test,,,,,,,,,,,,-1,-1,500,0,fixation,poldrack-single-stim,284,458051,0.0-6.1-79.1,go_nogo_deval,445,,<div class = centerbox><div class = fixation>+</div></div>,none,500,test,,,,,,,,,,,,-1,-1,850,0,stim,poldrack-single-stim,285,458903,0.0-6.1-80.1,go_nogo_deval,445,,<img class = center src='/static/experiments/go_nogo_deval/images/green_rhombus.png'></img>,32,850,test,green_rhombus,nogo1,-1,26,1,,,,,,,-1,-1,1400,0,ITI,poldrack-single-stim,286,460304,0.0-6.1-81.1,go_nogo_deval,445,,<div></div>,32,1400,test,,,,,,,,,,,,-1,-1,500,0,fixation,poldrack-single-stim,287,460806,0.0-6.1-82.1,go_nogo_deval,445,,<div class = centerbox><div class = fixation>+</div></div>,none,500,test,,,,,,,,,,,,396,32,850,0,stim,poldrack-single-stim,288,461657,0.0-6.1-83.1,go_nogo_deval,445,,<img class = center src='/static/experiments/go_nogo_deval/images/purple_pentagon.png'></img>,32,850,test,purple_pentagon,go2,32,27,1,,,,,,,-1,-1,1400,0,ITI,poldrack-single-stim,289,463059,0.0-6.1-84.1,go_nogo_deval,445,,<div></div>,32,1400,test,,,,,,,,,,,,-1,-1,500,0,fixation,poldrack-single-stim,290,463561,0.0-6.1-85.1,go_nogo_deval,445,,<div class = centerbox><div class = fixation>+</div></div>,none,500,test,,,,,,,,,,,,510,32,850,0,stim,poldrack-single-stim,291,464412,0.0-6.1-86.1,go_nogo_deval,445,,<img class = center src='/static/experiments/go_nogo_deval/images/purple_pentagon.png'></img>,32,850,test,purple_pentagon,go2,32,28,1,,,,,,,-1,-1,1400,0,ITI,poldrack-single-stim,292,465813,0.0-6.1-87.1,go_nogo_deval,445,,<div></div>,32,1400,test,,,,,,,,,,,,-1,-1,500,0,fixation,poldrack-single-stim,293,466315,0.0-6.1-88.1,go_nogo_deval,445,,<div class = centerbox><div class = fixation>+</div></div>,none,500,test,,,,,,,,,,,,332,32,850,0,stim,poldrack-single-stim,294,467166,0.0-6.1-89.1,go_nogo_deval,445,,<img class = center src='/static/experiments/go_nogo_deval/images/blue_circle.png'></img>,32,850,test,blue_circle,go1,32,29,1,,,,,,,-1,-1,1400,0,ITI,poldrack-single-stim,295,468568,0.0-6.1-90.1,go_nogo_deval,445,,<div></div>,32,1400,test,,,,,,,,,,,,-1,-1,500,0,fixation,poldrack-single-stim,296,469070,0.0-6.1-91.1,go_nogo_deval,445,,<div class = centerbox><div class = fixation>+</div></div>,none,500,test,,,,,,,,,,,,-1,-1,850,0,stim,poldrack-single-stim,297,469921,0.0-6.1-92.1,go_nogo_deval,445,,<img class = center src='/static/experiments/go_nogo_deval/images/green_rhombus.png'></img>,32,850,test,green_rhombus,nogo1,-1,30,1,,,,,,,-1,-1,1400,0,ITI,poldrack-single-stim,298,471322,0.0-6.1-93.1,go_nogo_deval,445,,<div></div>,32,1400,test,,,,,,,,,,,,-1,-1,500,0,fixation,poldrack-single-stim,299,471824,0.0-6.1-94.1,go_nogo_deval,445,,<div class = centerbox><div class = fixation>+</div></div>,none,500,test,,,,,,,,,,,,426,32,850,0,stim,poldrack-single-stim,300,472676,0.0-6.1-95.1,go_nogo_deval,445,,<img class = center src='/static/experiments/go_nogo_deval/images/purple_pentagon.png'></img>,32,850,test,purple_pentagon,go2,32,31,1,,,,,,,-1,-1,1400,0,ITI,poldrack-single-stim,301,474078,0.0-6.1-96.1,go_nogo_deval,445,,<div></div>,32,1400,test,,,,,,,,,,,,-1,-1,500,0,fixation,poldrack-single-stim,302,474578,0.0-6.1-97.1,go_nogo_deval,445,,<div class = centerbox><div class = fixation>+</div></div>,none,500,test,,,,,,,,,,,,427,32,850,0,stim,poldrack-single-stim,303,475430,0.0-6.1-98.1,go_nogo_deval,445,,<img class = center src='/static/experiments/go_nogo_deval/images/purple_pentagon.png'></img>,32,850,test,purple_pentagon,go2,32,32,1,,,,,,,-1,-1,1400,0,ITI,poldrack-single-stim,304,476832,0.0-6.1-99.1,go_nogo_deval,445,,<div></div>,32,1400,test,,,,,,,,,,,,-1,-1,500,0,fixation,poldrack-single-stim,305,477334,0.0-6.1-100.1,go_nogo_deval,445,,<div class = centerbox><div class = fixation>+</div></div>,none,500,test,,,,,,,,,,,,440,32,850,0,stim,poldrack-single-stim,306,478186,0.0-6.1-101.1,go_nogo_deval,445,,<img class = center src='/static/experiments/go_nogo_deval/images/blue_circle.png'></img>,32,850,test,blue_circle,go1,32,33,1,,,,,,,-1,-1,1400,0,ITI,poldrack-single-stim,307,479588,0.0-6.1-102.1,go_nogo_deval,445,,<div></div>,32,1400,test,,,,,,,,,,,,-1,-1,500,0,fixation,poldrack-single-stim,308,480090,0.0-6.1-103.1,go_nogo_deval,445,,<div class = centerbox><div class = fixation>+</div></div>,none,500,test,,,,,,,,,,,,-1,-1,850,0,stim,poldrack-single-stim,309,480941,0.0-6.1-104.1,go_nogo_deval,445,,<img class = center src='/static/experiments/go_nogo_deval/images/red_triangle.png'></img>,32,850,test,red_triangle,nogo2,-1,34,1,,,,,,,-1,-1,1400,0,ITI,poldrack-single-stim,310,482342,0.0-6.1-105.1,go_nogo_deval,445,,<div></div>,32,1400,test,,,,,,,,,,,,-1,-1,500,0,fixation,poldrack-single-stim,311,482843,0.0-6.1-106.1,go_nogo_deval,445,,<div class = centerbox><div class = fixation>+</div></div>,none,500,test,,,,,,,,,,,,432,32,850,0,stim,poldrack-single-stim,312,483695,0.0-6.1-107.1,go_nogo_deval,445,,<img class = center src='/static/experiments/go_nogo_deval/images/blue_circle.png'></img>,32,850,test,blue_circle,go1,32,35,1,,,,,,,-1,-1,1400,0,ITI,poldrack-single-stim,313,485097,0.0-6.1-108.1,go_nogo_deval,445,,<div></div>,32,1400,test,,,,,,,,,,,,-1,-1,500,0,fixation,poldrack-single-stim,314,485598,0.0-6.1-109.1,go_nogo_deval,445,,<div class = centerbox><div class = fixation>+</div></div>,none,500,test,,,,,,,,,,,,-1,-1,850,0,stim,poldrack-single-stim,315,486449,0.0-6.1-110.1,go_nogo_deval,445,,<img class = center src='/static/experiments/go_nogo_deval/images/red_triangle.png'></img>,32,850,test,red_triangle,nogo2,-1,36,1,,,,,,,-1,-1,1400,0,ITI,poldrack-single-stim,316,487850,0.0-6.1-111.1,go_nogo_deval,445,,<div></div>,32,1400,test,,,,,,,,,,,,-1,-1,500,0,fixation,poldrack-single-stim,317,488352,0.0-6.1-112.1,go_nogo_deval,445,,<div class = centerbox><div class = fixation>+</div></div>,none,500,test,,,,,,,,,,,,503,32,850,0,stim,poldrack-single-stim,318,489203,0.0-6.1-113.1,go_nogo_deval,445,,<img class = center src='/static/experiments/go_nogo_deval/images/purple_pentagon.png'></img>,32,850,test,purple_pentagon,go2,32,37,1,,,,,,,-1,-1,1400,0,ITI,poldrack-single-stim,319,490605,0.0-6.1-114.1,go_nogo_deval,445,,<div></div>,32,1400,test,,,,,,,,,,,,-1,-1,500,0,fixation,poldrack-single-stim,320,491106,0.0-6.1-115.1,go_nogo_deval,445,,<div class = centerbox><div class = fixation>+</div></div>,none,500,test,,,,,,,,,,,,414,32,850,0,stim,poldrack-single-stim,321,491958,0.0-6.1-116.1,go_nogo_deval,445,,<img class = center src='/static/experiments/go_nogo_deval/images/blue_circle.png'></img>,32,850,test,blue_circle,go1,32,38,1,,,,,,,-1,-1,1400,0,ITI,poldrack-single-stim,322,493359,0.0-6.1-117.1,go_nogo_deval,445,,<div></div>,32,1400,test,,,,,,,,,,,,-1,-1,500,0,fixation,poldrack-single-stim,323,493859,0.0-6.1-118.1,go_nogo_deval,445,,<div class = centerbox><div class = fixation>+</div></div>,none,500,test,,,,,,,,,,,,-1,-1,850,0,stim,poldrack-single-stim,324,494710,0.0-6.1-119.1,go_nogo_deval,445,,<img class = center src='/static/experiments/go_nogo_deval/images/red_triangle.png'></img>,32,850,test,red_triangle,nogo2,-1,39,1,,,,,,,-1,-1,1400,0,ITI,poldrack-single-stim,325,496111,0.0-6.1-120.1,go_nogo_deval,445,,<div></div>,32,1400,test,,,,,,,,,,,,-1,-1,500,0,fixation,poldrack-single-stim,326,496612,0.0-6.1-121.1,go_nogo_deval,445,,<div class = centerbox><div class = fixation>+</div></div>,none,500,test,,,,,,,,,,,,512,32,850,0,stim,poldrack-single-stim,327,497463,0.0-6.1-122.1,go_nogo_deval,445,,<img class = center src='/static/experiments/go_nogo_deval/images/purple_pentagon.png'></img>,32,850,test,purple_pentagon,go2,32,40,1,,,,,,,-1,-1,1400,0,ITI,poldrack-single-stim,328,498863,0.0-6.1-123.1,go_nogo_deval,445,,<div></div>,32,1400,test,,,,,,,,,,,,-1,-1,500,0,fixation,poldrack-single-stim,329,499364,0.0-6.1-124.1,go_nogo_deval,445,,<div class = centerbox><div class = fixation>+</div></div>,none,500,test,,,,,,,,,,,,504,32,850,0,stim,poldrack-single-stim,330,500216,0.0-6.1-125.1,go_nogo_deval,445,,<img class = center src='/static/experiments/go_nogo_deval/images/purple_pentagon.png'></img>,32,850,test,purple_pentagon,go2,32,41,1,,,,,,,-1,-1,1400,0,ITI,poldrack-single-stim,331,501617,0.0-6.1-126.1,go_nogo_deval,445,,<div></div>,32,1400,test,,,,,,,,,,,,-1,-1,500,0,fixation,poldrack-single-stim,332,502119,0.0-6.1-127.1,go_nogo_deval,445,,<div class = centerbox><div class = fixation>+</div></div>,none,500,test,,,,,,,,,,,,-1,-1,850,0,stim,poldrack-single-stim,333,502970,0.0-6.1-128.1,go_nogo_deval,445,,<img class = center src='/static/experiments/go_nogo_deval/images/green_rhombus.png'></img>,32,850,test,green_rhombus,nogo1,-1,42,1,,,,,,,-1,-1,1400,0,ITI,poldrack-single-stim,334,504371,0.0-6.1-129.1,go_nogo_deval,445,,<div></div>,32,1400,test,,,,,,,,,,,,-1,-1,500,0,fixation,poldrack-single-stim,335,504873,0.0-6.1-130.1,go_nogo_deval,445,,<div class = centerbox><div class = fixation>+</div></div>,none,500,test,,,,,,,,,,,,-1,-1,850,0,stim,poldrack-single-stim,336,505725,0.0-6.1-131.1,go_nogo_deval,445,,<img class = center src='/static/experiments/go_nogo_deval/images/red_triangle.png'></img>,32,850,test,red_triangle,nogo2,-1,43,1,,,,,,,-1,-1,1400,0,ITI,poldrack-single-stim,337,507126,0.0-6.1-132.1,go_nogo_deval,445,,<div></div>,32,1400,test,,,,,,,,,,,,-1,-1,500,0,fixation,poldrack-single-stim,338,507627,0.0-6.1-133.1,go_nogo_deval,445,,<div class = centerbox><div class = fixation>+</div></div>,none,500,test,,,,,,,,,,,,-1,-1,850,0,stim,poldrack-single-stim,339,508478,0.0-6.1-134.1,go_nogo_deval,445,,<img class = center src='/static/experiments/go_nogo_deval/images/green_rhombus.png'></img>,32,850,test,green_rhombus,nogo1,-1,44,1,,,,,,,-1,-1,1400,0,ITI,poldrack-single-stim,340,509880,0.0-6.1-135.1,go_nogo_deval,445,,<div></div>,32,1400,test,,,,,,,,,,,,-1,-1,500,0,fixation,poldrack-single-stim,341,510381,0.0-6.1-136.1,go_nogo_deval,445,,<div class = centerbox><div class = fixation>+</div></div>,none,500,test,,,,,,,,,,,,435,32,850,0,stim,poldrack-single-stim,342,511233,0.0-6.1-137.1,go_nogo_deval,445,,<img class = center src='/static/experiments/go_nogo_deval/images/blue_circle.png'></img>,32,850,test,blue_circle,go1,32,45,1,,,,,,,-1,-1,1400,0,ITI,poldrack-single-stim,343,512634,0.0-6.1-138.1,go_nogo_deval,445,,<div></div>,32,1400,test,,,,,,,,,,,,-1,-1,500,0,fixation,poldrack-single-stim,344,513135,0.0-6.1-139.1,go_nogo_deval,445,,<div class = centerbox><div class = fixation>+</div></div>,none,500,test,,,,,,,,,,,,425,32,850,0,stim,poldrack-single-stim,345,513986,0.0-6.1-140.1,go_nogo_deval,445,,<img class = center src='/static/experiments/go_nogo_deval/images/purple_pentagon.png'></img>,32,850,test,purple_pentagon,go2,32,46,1,,,,,,,-1,-1,1400,0,ITI,poldrack-single-stim,346,515388,0.0-6.1-141.1,go_nogo_deval,445,,<div></div>,32,1400,test,,,,,,,,,,,,-1,-1,500,0,fixation,poldrack-single-stim,347,515889,0.0-6.1-142.1,go_nogo_deval,445,,<div class = centerbox><div class = fixation>+</div></div>,none,500,test,,,,,,,,,,,,518,32,850,0,stim,poldrack-single-stim,348,516740,0.0-6.1-143.1,go_nogo_deval,445,,<img class = center src='/static/experiments/go_nogo_deval/images/blue_circle.png'></img>,32,850,test,blue_circle,go1,32,47,1,,,,,,,-1,-1,1400,0,ITI,poldrack-single-stim,349,518141,0.0-6.1-144.1,go_nogo_deval,445,,<div></div>,32,1400,test,,,,,,,,,,,,5203,13,5203,0,practice-no-stop-feedback,poldrack-single-stim,350,523349,0.0-6.2-0.2,go_nogo_deval,445,,<div class = centerbox><p class = block-text><br>Please take this time to read your feedback and to take a short break! Press enter to continue</p><p class = block-text><strong>Average reaction time:  453 ms. Accuracy: 100%</strong></p></div>,13,5203,,,,,,,,,,,,,-1,-1,500,0,fixation,poldrack-single-stim,351,523849,0.0-6.2-1.2,go_nogo_deval,445,,<div class = centerbox><div class = fixation>+</div></div>,none,500,test,,,,,,,,,,,,477,32,850,0,stim,poldrack-single-stim,352,524701,0.0-6.2-2.2,go_nogo_deval,445,,<img class = center src='/static/experiments/go_nogo_deval/images/blue_circle.png'></img>,32,850,test,blue_circle,go1,32,0,2,,,,,,,-1,-1,1400,0,ITI,poldrack-single-stim,353,526103,0.0-6.2-3.2,go_nogo_deval,445,,<div></div>,32,1400,test,,,,,,,,,,,,-1,-1,500,0,fixation,poldrack-single-stim,354,526605,0.0-6.2-4.2,go_nogo_deval,445,,<div class = centerbox><div class = fixation>+</div></div>,none,500,test,,,,,,,,,,,,-1,-1,850,0,stim,poldrack-single-stim,355,527457,0.0-6.2-5.2,go_nogo_deval,445,,<img class = center src='/static/experiments/go_nogo_deval/images/green_rhombus.png'></img>,32,850,test,green_rhombus,nogo1,-1,1,2,,,,,,,-1,-1,1400,0,ITI,poldrack-single-stim,356,528857,0.0-6.2-6.2,go_nogo_deval,445,,<div></div>,32,1400,test,,,,,,,,,,,,-1,-1,500,0,fixation,poldrack-single-stim,357,529358,0.0-6.2-7.2,go_nogo_deval,445,,<div class = centerbox><div class = fixation>+</div></div>,none,500,test,,,,,,,,,,,,-1,-1,850,0,stim,poldrack-single-stim,358,530210,0.0-6.2-8.2,go_nogo_deval,445,,<img class = center src='/static/experiments/go_nogo_deval/images/red_triangle.png'></img>,32,850,test,red_triangle,nogo2,-1,2,2,,,,,,,-1,-1,1400,0,ITI,poldrack-single-stim,359,531612,0.0-6.2-9.2,go_nogo_deval,445,,<div></div>,32,1400,test,,,,,,,,,,,,-1,-1,500,0,fixation,poldrack-single-stim,360,532112,0.0-6.2-10.2,go_nogo_deval,445,,<div class = centerbox><div class = fixation>+</div></div>,none,500,test,,,,,,,,,,,,-1,-1,850,0,stim,poldrack-single-stim,361,532964,0.0-6.2-11.2,go_nogo_deval,445,,<img class = center src='/static/experiments/go_nogo_deval/images/green_rhombus.png'></img>,32,850,test,green_rhombus,nogo1,-1,3,2,,,,,,,-1,-1,1400,0,ITI,poldrack-single-stim,362,534366,0.0-6.2-12.2,go_nogo_deval,445,,<div></div>,32,1400,test,,,,,,,,,,,,-1,-1,500,0,fixation,poldrack-single-stim,363,534868,0.0-6.2-13.2,go_nogo_deval,445,,<div class = centerbox><div class = fixation>+</div></div>,none,500,test,,,,,,,,,,,,473,32,850,0,stim,poldrack-single-stim,364,535720,0.0-6.2-14.2,go_nogo_deval,445,,<img class = center src='/static/experiments/go_nogo_deval/images/blue_circle.png'></img>,32,850,test,blue_circle,go1,32,4,2,,,,,,,-1,-1,1400,0,ITI,poldrack-single-stim,365,537121,0.0-6.2-15.2,go_nogo_deval,445,,<div></div>,32,1400,test,,,,,,,,,,,,-1,-1,500,0,fixation,poldrack-single-stim,366,537622,0.0-6.2-16.2,go_nogo_deval,445,,<div class = centerbox><div class = fixation>+</div></div>,none,500,test,,,,,,,,,,,,598,32,850,0,stim,poldrack-single-stim,367,538473,0.0-6.2-17.2,go_nogo_deval,445,,<img class = center src='/static/experiments/go_nogo_deval/images/blue_circle.png'></img>,32,850,test,blue_circle,go1,32,5,2,,,,,,,-1,-1,1400,0,ITI,poldrack-single-stim,368,539874,0.0-6.2-18.2,go_nogo_deval,445,,<div></div>,32,1400,test,,,,,,,,,,,,-1,-1,500,0,fixation,poldrack-single-stim,369,540375,0.0-6.2-19.2,go_nogo_deval,445,,<div class = centerbox><div class = fixation>+</div></div>,none,500,test,,,,,,,,,,,,-1,-1,850,0,stim,poldrack-single-stim,370,541226,0.0-6.2-20.2,go_nogo_deval,445,,<img class = center src='/static/experiments/go_nogo_deval/images/green_rhombus.png'></img>,32,850,test,green_rhombus,nogo1,-1,6,2,,,,,,,-1,-1,1400,0,ITI,poldrack-single-stim,371,542627,0.0-6.2-21.2,go_nogo_deval,445,,<div></div>,32,1400,test,,,,,,,,,,,,-1,-1,500,0,fixation,poldrack-single-stim,372,543129,0.0-6.2-22.2,go_nogo_deval,445,,<div class = centerbox><div class = fixation>+</div></div>,none,500,test,,,,,,,,,,,,356,32,850,0,stim,poldrack-single-stim,373,543980,0.0-6.2-23.2,go_nogo_deval,445,,<img class = center src='/static/experiments/go_nogo_deval/images/purple_pentagon.png'></img>,32,850,test,purple_pentagon,go2,32,7,2,,,,,,,-1,-1,1400,0,ITI,poldrack-single-stim,374,545381,0.0-6.2-24.2,go_nogo_deval,445,,<div></div>,32,1400,test,,,,,,,,,,,,-1,-1,500,0,fixation,poldrack-single-stim,375,545882,0.0-6.2-25.2,go_nogo_deval,445,,<div class = centerbox><div class = fixation>+</div></div>,none,500,test,,,,,,,,,,,,506,32,850,0,stim,poldrack-single-stim,376,546734,0.0-6.2-26.2,go_nogo_deval,445,,<img class = center src='/static/experiments/go_nogo_deval/images/blue_circle.png'></img>,32,850,test,blue_circle,go1,32,8,2,,,,,,,-1,-1,1400,0,ITI,poldrack-single-stim,377,548135,0.0-6.2-27.2,go_nogo_deval,445,,<div></div>,32,1400,test,,,,,,,,,,,,-1,-1,500,0,fixation,poldrack-single-stim,378,548636,0.0-6.2-28.2,go_nogo_deval,445,,<div class = centerbox><div class = fixation>+</div></div>,none,500,test,,,,,,,,,,,,440,32,850,0,stim,poldrack-single-stim,379,549487,0.0-6.2-29.2,go_nogo_deval,445,,<img class = center src='/static/experiments/go_nogo_deval/images/purple_pentagon.png'></img>,32,850,test,purple_pentagon,go2,32,9,2,,,,,,,-1,-1,1400,0,ITI,poldrack-single-stim,380,550888,0.0-6.2-30.2,go_nogo_deval,445,,<div></div>,32,1400,test,,,,,,,,,,,,-1,-1,500,0,fixation,poldrack-single-stim,381,551389,0.0-6.2-31.2,go_nogo_deval,445,,<div class = centerbox><div class = fixation>+</div></div>,none,500,test,,,,,,,,,,,,-1,-1,850,0,stim,poldrack-single-stim,382,552241,0.0-6.2-32.2,go_nogo_deval,445,,<img class = center src='/static/experiments/go_nogo_deval/images/red_triangle.png'></img>,32,850,test,red_triangle,nogo2,-1,10,2,,,,,,,-1,-1,1400,0,ITI,poldrack-single-stim,383,553642,0.0-6.2-33.2,go_nogo_deval,445,,<div></div>,32,1400,test,,,,,,,,,,,,-1,-1,500,0,fixation,poldrack-single-stim,384,554144,0.0-6.2-34.2,go_nogo_deval,445,,<div class = centerbox><div class = fixation>+</div></div>,none,500,test,,,,,,,,,,,,-1,-1,850,0,stim,poldrack-single-stim,385,554995,0.0-6.2-35.2,go_nogo_deval,445,,<img class = center src='/static/experiments/go_nogo_deval/images/red_triangle.png'></img>,32,850,test,red_triangle,nogo2,-1,11,2,,,,,,,-1,-1,1400,0,ITI,poldrack-single-stim,386,556396,0.0-6.2-36.2,go_nogo_deval,445,,<div></div>,32,1400,test,,,,,,,,,,,,-1,-1,500,0,fixation,poldrack-single-stim,387,556897,0.0-6.2-37.2,go_nogo_deval,445,,<div class = centerbox><div class = fixation>+</div></div>,none,500,test,,,,,,,,,,,,427,32,850,0,stim,poldrack-single-stim,388,557748,0.0-6.2-38.2,go_nogo_deval,445,,<img class = center src='/static/experiments/go_nogo_deval/images/blue_circle.png'></img>,32,850,test,blue_circle,go1,32,12,2,,,,,,,-1,-1,1400,0,ITI,poldrack-single-stim,389,559150,0.0-6.2-39.2,go_nogo_deval,445,,<div></div>,32,1400,test,,,,,,,,,,,,-1,-1,500,0,fixation,poldrack-single-stim,390,559651,0.0-6.2-40.2,go_nogo_deval,445,,<div class = centerbox><div class = fixation>+</div></div>,none,500,test,,,,,,,,,,,,541,32,850,0,stim,poldrack-single-stim,391,560503,0.0-6.2-41.2,go_nogo_deval,445,,<img class = center src='/static/experiments/go_nogo_deval/images/purple_pentagon.png'></img>,32,850,test,purple_pentagon,go2,32,13,2,,,,,,,-1,-1,1400,0,ITI,poldrack-single-stim,392,561905,0.0-6.2-42.2,go_nogo_deval,445,,<div></div>,32,1400,test,,,,,,,,,,,,-1,-1,500,0,fixation,poldrack-single-stim,393,562407,0.0-6.2-43.2,go_nogo_deval,445,,<div class = centerbox><div class = fixation>+</div></div>,none,500,test,,,,,,,,,,,,-1,-1,850,0,stim,poldrack-single-stim,394,563259,0.0-6.2-44.2,go_nogo_deval,445,,<img class = center src='/static/experiments/go_nogo_deval/images/red_triangle.png'></img>,32,850,test,red_triangle,nogo2,-1,14,2,,,,,,,-1,-1,1400,0,ITI,poldrack-single-stim,395,564661,0.0-6.2-45.2,go_nogo_deval,445,,<div></div>,32,1400,test,,,,,,,,,,,,-1,-1,500,0,fixation,poldrack-single-stim,396,565162,0.0-6.2-46.2,go_nogo_deval,445,,<div class = centerbox><div class = fixation>+</div></div>,none,500,test,,,,,,,,,,,,473,32,850,0,stim,poldrack-single-stim,397,566014,0.0-6.2-47.2,go_nogo_deval,445,,<img class = center src='/static/experiments/go_nogo_deval/images/blue_circle.png'></img>,32,850,test,blue_circle,go1,32,15,2,,,,,,,-1,-1,1400,0,ITI,poldrack-single-stim,398,567416,0.0-6.2-48.2,go_nogo_deval,445,,<div></div>,32,1400,test,,,,,,,,,,,,-1,-1,500,0,fixation,poldrack-single-stim,399,567918,0.0-6.2-49.2,go_nogo_deval,445,,<div class = centerbox><div class = fixation>+</div></div>,none,500,test,,,,,,,,,,,,464,32,850,0,stim,poldrack-single-stim,400,568770,0.0-6.2-50.2,go_nogo_deval,445,,<img class = center src='/static/experiments/go_nogo_deval/images/purple_pentagon.png'></img>,32,850,test,purple_pentagon,go2,32,16,2,,,,,,,-1,-1,1400,0,ITI,poldrack-single-stim,401,570171,0.0-6.2-51.2,go_nogo_deval,445,,<div></div>,32,1400,test,,,,,,,,,,,,-1,-1,500,0,fixation,poldrack-single-stim,402,570672,0.0-6.2-52.2,go_nogo_deval,445,,<div class = centerbox><div class = fixation>+</div></div>,none,500,test,,,,,,,,,,,,422,32,850,0,stim,poldrack-single-stim,403,571523,0.0-6.2-53.2,go_nogo_deval,445,,<img class = center src='/static/experiments/go_nogo_deval/images/purple_pentagon.png'></img>,32,850,test,purple_pentagon,go2,32,17,2,,,,,,,-1,-1,1400,0,ITI,poldrack-single-stim,404,572925,0.0-6.2-54.2,go_nogo_deval,445,,<div></div>,32,1400,test,,,,,,,,,,,,-1,-1,500,0,fixation,poldrack-single-stim,405,573426,0.0-6.2-55.2,go_nogo_deval,445,,<div class = centerbox><div class = fixation>+</div></div>,none,500,test,,,,,,,,,,,,412,32,850,0,stim,poldrack-single-stim,406,574278,0.0-6.2-56.2,go_nogo_deval,445,,<img class = center src='/static/experiments/go_nogo_deval/images/blue_circle.png'></img>,32,850,test,blue_circle,go1,32,18,2,,,,,,,-1,-1,1400,0,ITI,poldrack-single-stim,407,575679,0.0-6.2-57.2,go_nogo_deval,445,,<div></div>,32,1400,test,,,,,,,,,,,,-1,-1,500,0,fixation,poldrack-single-stim,408,576181,0.0-6.2-58.2,go_nogo_deval,445,,<div class = centerbox><div class = fixation>+</div></div>,none,500,test,,,,,,,,,,,,-1,-1,850,0,stim,poldrack-single-stim,409,577032,0.0-6.2-59.2,go_nogo_deval,445,,<img class = center src='/static/experiments/go_nogo_deval/images/green_rhombus.png'></img>,32,850,test,green_rhombus,nogo1,-1,19,2,,,,,,,-1,-1,1400,0,ITI,poldrack-single-stim,410,578434,0.0-6.2-60.2,go_nogo_deval,445,,<div></div>,32,1400,test,,,,,,,,,,,,-1,-1,500,0,fixation,poldrack-single-stim,411,578935,0.0-6.2-61.2,go_nogo_deval,445,,<div class = centerbox><div class = fixation>+</div></div>,none,500,test,,,,,,,,,,,,359,32,850,0,stim,poldrack-single-stim,412,579787,0.0-6.2-62.2,go_nogo_deval,445,,<img class = center src='/static/experiments/go_nogo_deval/images/purple_pentagon.png'></img>,32,850,test,purple_pentagon,go2,32,20,2,,,,,,,-1,-1,1400,0,ITI,poldrack-single-stim,413,581188,0.0-6.2-63.2,go_nogo_deval,445,,<div></div>,32,1400,test,,,,,,,,,,,,-1,-1,500,0,fixation,poldrack-single-stim,414,581690,0.0-6.2-64.2,go_nogo_deval,445,,<div class = centerbox><div class = fixation>+</div></div>,none,500,test,,,,,,,,,,,,428,32,850,0,stim,poldrack-single-stim,415,582541,0.0-6.2-65.2,go_nogo_deval,445,,<img class = center src='/static/experiments/go_nogo_deval/images/purple_pentagon.png'></img>,32,850,test,purple_pentagon,go2,32,21,2,,,,,,,-1,-1,1400,0,ITI,poldrack-single-stim,416,583942,0.0-6.2-66.2,go_nogo_deval,445,,<div></div>,32,1400,test,,,,,,,,,,,,-1,-1,500,0,fixation,poldrack-single-stim,417,584444,0.0-6.2-67.2,go_nogo_deval,445,,<div class = centerbox><div class = fixation>+</div></div>,none,500,test,,,,,,,,,,,,509,32,850,0,stim,poldrack-single-stim,418,585295,0.0-6.2-68.2,go_nogo_deval,445,,<img class = center src='/static/experiments/go_nogo_deval/images/blue_circle.png'></img>,32,850,test,blue_circle,go1,32,22,2,,,,,,,-1,-1,1400,0,ITI,poldrack-single-stim,419,586697,0.0-6.2-69.2,go_nogo_deval,445,,<div></div>,32,1400,test,,,,,,,,,,,,-1,-1,500,0,fixation,poldrack-single-stim,420,587199,0.0-6.2-70.2,go_nogo_deval,445,,<div class = centerbox><div class = fixation>+</div></div>,none,500,test,,,,,,,,,,,,-1,-1,850,0,stim,poldrack-single-stim,421,588050,0.0-6.2-71.2,go_nogo_deval,445,,<img class = center src='/static/experiments/go_nogo_deval/images/red_triangle.png'></img>,32,850,test,red_triangle,nogo2,-1,23,2,,,,,,,-1,-1,1400,0,ITI,poldrack-single-stim,422,589451,0.0-6.2-72.2,go_nogo_deval,445,,<div></div>,32,1400,test,,,,,,,,,,,,-1,-1,500,0,fixation,poldrack-single-stim,423,589953,0.0-6.2-73.2,go_nogo_deval,445,,<div class = centerbox><div class = fixation>+</div></div>,none,500,test,,,,,,,,,,,,490,32,850,0,stim,poldrack-single-stim,424,590805,0.0-6.2-74.2,go_nogo_deval,445,,<img class = center src='/static/experiments/go_nogo_deval/images/blue_circle.png'></img>,32,850,test,blue_circle,go1,32,24,2,,,,,,,-1,-1,1400,0,ITI,poldrack-single-stim,425,592207,0.0-6.2-75.2,go_nogo_deval,445,,<div></div>,32,1400,test,,,,,,,,,,,,-1,-1,500,0,fixation,poldrack-single-stim,426,592709,0.0-6.2-76.2,go_nogo_deval,445,,<div class = centerbox><div class = fixation>+</div></div>,none,500,test,,,,,,,,,,,,-1,-1,850,0,stim,poldrack-single-stim,427,593560,0.0-6.2-77.2,go_nogo_deval,445,,<img class = center src='/static/experiments/go_nogo_deval/images/red_triangle.png'></img>,32,850,test,red_triangle,nogo2,-1,25,2,,,,,,,-1,-1,1400,0,ITI,poldrack-single-stim,428,594962,0.0-6.2-78.2,go_nogo_deval,445,,<div></div>,32,1400,test,,,,,,,,,,,,-1,-1,500,0,fixation,poldrack-single-stim,429,595463,0.0-6.2-79.2,go_nogo_deval,445,,<div class = centerbox><div class = fixation>+</div></div>,none,500,test,,,,,,,,,,,,459,32,850,0,stim,poldrack-single-stim,430,596315,0.0-6.2-80.2,go_nogo_deval,445,,<img class = center src='/static/experiments/go_nogo_deval/images/purple_pentagon.png'></img>,32,850,test,purple_pentagon,go2,32,26,2,,,,,,,-1,-1,1400,0,ITI,poldrack-single-stim,431,597716,0.0-6.2-81.2,go_nogo_deval,445,,<div></div>,32,1400,test,,,,,,,,,,,,-1,-1,500,0,fixation,poldrack-single-stim,432,598218,0.0-6.2-82.2,go_nogo_deval,445,,<div class = centerbox><div class = fixation>+</div></div>,none,500,test,,,,,,,,,,,,392,32,850,0,stim,poldrack-single-stim,433,599070,0.0-6.2-83.2,go_nogo_deval,445,,<img class = center src='/static/experiments/go_nogo_deval/images/purple_pentagon.png'></img>,32,850,test,purple_pentagon,go2,32,27,2,,,,,,,-1,-1,1400,0,ITI,poldrack-single-stim,434,600472,0.0-6.2-84.2,go_nogo_deval,445,,<div></div>,32,1400,test,,,,,,,,,,,,-1,-1,500,0,fixation,poldrack-single-stim,435,600973,0.0-6.2-85.2,go_nogo_deval,445,,<div class = centerbox><div class = fixation>+</div></div>,none,500,test,,,,,,,,,,,,360,32,850,0,stim,poldrack-single-stim,436,601824,0.0-6.2-86.2,go_nogo_deval,445,,<img class = center src='/static/experiments/go_nogo_deval/images/purple_pentagon.png'></img>,32,850,test,purple_pentagon,go2,32,28,2,,,,,,,-1,-1,1400,0,ITI,poldrack-single-stim,437,603226,0.0-6.2-87.2,go_nogo_deval,445,,<div></div>,32,1400,test,,,,,,,,,,,,-1,-1,500,0,fixation,poldrack-single-stim,438,603727,0.0-6.2-88.2,go_nogo_deval,445,,<div class = centerbox><div class = fixation>+</div></div>,none,500,test,,,,,,,,,,,,-1,-1,850,0,stim,poldrack-single-stim,439,604579,0.0-6.2-89.2,go_nogo_deval,445,,<img class = center src='/static/experiments/go_nogo_deval/images/red_triangle.png'></img>,32,850,test,red_triangle,nogo2,-1,29,2,,,,,,,-1,-1,1400,0,ITI,poldrack-single-stim,440,605980,0.0-6.2-90.2,go_nogo_deval,445,,<div></div>,32,1400,test,,,,,,,,,,,,-1,-1,500,0,fixation,poldrack-single-stim,441,606482,0.0-6.2-91.2,go_nogo_deval,445,,<div class = centerbox><div class = fixation>+</div></div>,none,500,test,,,,,,,,,,,,-1,-1,850,0,stim,poldrack-single-stim,442,607335,0.0-6.2-92.2,go_nogo_deval,445,,<img class = center src='/static/experiments/go_nogo_deval/images/green_rhombus.png'></img>,32,850,test,green_rhombus,nogo1,-1,30,2,,,,,,,-1,-1,1400,0,ITI,poldrack-single-stim,443,608737,0.0-6.2-93.2,go_nogo_deval,445,,<div></div>,32,1400,test,,,,,,,,,,,,-1,-1,500,0,fixation,poldrack-single-stim,444,609238,0.0-6.2-94.2,go_nogo_deval,445,,<div class = centerbox><div class = fixation>+</div></div>,none,500,test,,,,,,,,,,,,487,32,850,0,stim,poldrack-single-stim,445,610089,0.0-6.2-95.2,go_nogo_deval,445,,<img class = center src='/static/experiments/go_nogo_deval/images/purple_pentagon.png'></img>,32,850,test,purple_pentagon,go2,32,31,2,,,,,,,-1,-1,1400,0,ITI,poldrack-single-stim,446,611491,0.0-6.2-96.2,go_nogo_deval,445,,<div></div>,32,1400,test,,,,,,,,,,,,-1,-1,500,0,fixation,poldrack-single-stim,447,611992,0.0-6.2-97.2,go_nogo_deval,445,,<div class = centerbox><div class = fixation>+</div></div>,none,500,test,,,,,,,,,,,,-1,-1,850,0,stim,poldrack-single-stim,448,612844,0.0-6.2-98.2,go_nogo_deval,445,,<img class = center src='/static/experiments/go_nogo_deval/images/green_rhombus.png'></img>,32,850,test,green_rhombus,nogo1,-1,32,2,,,,,,,-1,-1,1400,0,ITI,poldrack-single-stim,449,614245,0.0-6.2-99.2,go_nogo_deval,445,,<div></div>,32,1400,test,,,,,,,,,,,,-1,-1,500,0,fixation,poldrack-single-stim,450,614747,0.0-6.2-100.2,go_nogo_deval,445,,<div class = centerbox><div class = fixation>+</div></div>,none,500,test,,,,,,,,,,,,457,32,850,0,stim,poldrack-single-stim,451,615598,0.0-6.2-101.2,go_nogo_deval,445,,<img class = center src='/static/experiments/go_nogo_deval/images/purple_pentagon.png'></img>,32,850,test,purple_pentagon,go2,32,33,2,,,,,,,-1,-1,1400,0,ITI,poldrack-single-stim,452,617000,0.0-6.2-102.2,go_nogo_deval,445,,<div></div>,32,1400,test,,,,,,,,,,,,-1,-1,500,0,fixation,poldrack-single-stim,453,617502,0.0-6.2-103.2,go_nogo_deval,445,,<div class = centerbox><div class = fixation>+</div></div>,none,500,test,,,,,,,,,,,,-1,-1,850,0,stim,poldrack-single-stim,454,618354,0.0-6.2-104.2,go_nogo_deval,445,,<img class = center src='/static/experiments/go_nogo_deval/images/red_triangle.png'></img>,32,850,test,red_triangle,nogo2,-1,34,2,,,,,,,-1,-1,1400,0,ITI,poldrack-single-stim,455,619755,0.0-6.2-105.2,go_nogo_deval,445,,<div></div>,32,1400,test,,,,,,,,,,,,-1,-1,500,0,fixation,poldrack-single-stim,456,620257,0.0-6.2-106.2,go_nogo_deval,445,,<div class = centerbox><div class = fixation>+</div></div>,none,500,test,,,,,,,,,,,,-1,-1,850,0,stim,poldrack-single-stim,457,621107,0.0-6.2-107.2,go_nogo_deval,445,,<img class = center src='/static/experiments/go_nogo_deval/images/green_rhombus.png'></img>,32,850,test,green_rhombus,nogo1,-1,35,2,,,,,,,-1,-1,1400,0,ITI,poldrack-single-stim,458,622509,0.0-6.2-108.2,go_nogo_deval,445,,<div></div>,32,1400,test,,,,,,,,,,,,-1,-1,500,0,fixation,poldrack-single-stim,459,623011,0.0-6.2-109.2,go_nogo_deval,445,,<div class = centerbox><div class = fixation>+</div></div>,none,500,test,,,,,,,,,,,,463,32,850,0,stim,poldrack-single-stim,460,623862,0.0-6.2-110.2,go_nogo_deval,445,,<img class = center src='/static/experiments/go_nogo_deval/images/purple_pentagon.png'></img>,32,850,test,purple_pentagon,go2,32,36,2,,,,,,,-1,-1,1400,0,ITI,poldrack-single-stim,461,625264,0.0-6.2-111.2,go_nogo_deval,445,,<div></div>,32,1400,test,,,,,,,,,,,,-1,-1,500,0,fixation,poldrack-single-stim,462,625765,0.0-6.2-112.2,go_nogo_deval,445,,<div class = centerbox><div class = fixation>+</div></div>,none,500,test,,,,,,,,,,,,464,32,850,0,stim,poldrack-single-stim,463,626616,0.0-6.2-113.2,go_nogo_deval,445,,<img class = center src='/static/experiments/go_nogo_deval/images/blue_circle.png'></img>,32,850,test,blue_circle,go1,32,37,2,,,,,,,-1,-1,1400,0,ITI,poldrack-single-stim,464,628018,0.0-6.2-114.2,go_nogo_deval,445,,<div></div>,32,1400,test,,,,,,,,,,,,-1,-1,500,0,fixation,poldrack-single-stim,465,628519,0.0-6.2-115.2,go_nogo_deval,445,,<div class = centerbox><div class = fixation>+</div></div>,none,500,test,,,,,,,,,,,,411,32,850,0,stim,poldrack-single-stim,466,629370,0.0-6.2-116.2,go_nogo_deval,445,,<img class = center src='/static/experiments/go_nogo_deval/images/blue_circle.png'></img>,32,850,test,blue_circle,go1,32,38,2,,,,,,,-1,-1,1400,0,ITI,poldrack-single-stim,467,630772,0.0-6.2-117.2,go_nogo_deval,445,,<div></div>,32,1400,test,,,,,,,,,,,,-1,-1,500,0,fixation,poldrack-single-stim,468,631274,0.0-6.2-118.2,go_nogo_deval,445,,<div class = centerbox><div class = fixation>+</div></div>,none,500,test,,,,,,,,,,,,367,32,850,0,stim,poldrack-single-stim,469,632125,0.0-6.2-119.2,go_nogo_deval,445,,<img class = center src='/static/experiments/go_nogo_deval/images/blue_circle.png'></img>,32,850,test,blue_circle,go1,32,39,2,,,,,,,-1,-1,1400,0,ITI,poldrack-single-stim,470,633526,0.0-6.2-120.2,go_nogo_deval,445,,<div></div>,32,1400,test,,,,,,,,,,,,-1,-1,500,0,fixation,poldrack-single-stim,471,634028,0.0-6.2-121.2,go_nogo_deval,445,,<div class = centerbox><div class = fixation>+</div></div>,none,500,test,,,,,,,,,,,,381,32,850,0,stim,poldrack-single-stim,472,634880,0.0-6.2-122.2,go_nogo_deval,445,,<img class = center src='/static/experiments/go_nogo_deval/images/blue_circle.png'></img>,32,850,test,blue_circle,go1,32,40,2,,,,,,,-1,-1,1400,0,ITI,poldrack-single-stim,473,636281,0.0-6.2-123.2,go_nogo_deval,445,,<div></div>,32,1400,test,,,,,,,,,,,,-1,-1,500,0,fixation,poldrack-single-stim,474,636783,0.0-6.2-124.2,go_nogo_deval,445,,<div class = centerbox><div class = fixation>+</div></div>,none,500,test,,,,,,,,,,,,371,32,850,0,stim,poldrack-single-stim,475,637634,0.0-6.2-125.2,go_nogo_deval,445,,<img class = center src='/static/experiments/go_nogo_deval/images/blue_circle.png'></img>,32,850,test,blue_circle,go1,32,41,2,,,,,,,-1,-1,1400,0,ITI,poldrack-single-stim,476,639035,0.0-6.2-126.2,go_nogo_deval,445,,<div></div>,32,1400,test,,,,,,,,,,,,-1,-1,500,0,fixation,poldrack-single-stim,477,639537,0.0-6.2-127.2,go_nogo_deval,445,,<div class = centerbox><div class = fixation>+</div></div>,none,500,test,,,,,,,,,,,,441,32,850,0,stim,poldrack-single-stim,478,640389,0.0-6.2-128.2,go_nogo_deval,445,,<img class = center src='/static/experiments/go_nogo_deval/images/purple_pentagon.png'></img>,32,850,test,purple_pentagon,go2,32,42,2,,,,,,,-1,-1,1400,0,ITI,poldrack-single-stim,479,641791,0.0-6.2-129.2,go_nogo_deval,445,,<div></div>,32,1400,test,,,,,,,,,,,,-1,-1,500,0,fixation,poldrack-single-stim,480,642293,0.0-6.2-130.2,go_nogo_deval,445,,<div class = centerbox><div class = fixation>+</div></div>,none,500,test,,,,,,,,,,,,396,32,850,0,stim,poldrack-single-stim,481,643144,0.0-6.2-131.2,go_nogo_deval,445,,<img class = center src='/static/experiments/go_nogo_deval/images/purple_pentagon.png'></img>,32,850,test,purple_pentagon,go2,32,43,2,,,,,,,-1,-1,1400,0,ITI,poldrack-single-stim,482,644546,0.0-6.2-132.2,go_nogo_deval,445,,<div></div>,32,1400,test,,,,,,,,,,,,-1,-1,500,0,fixation,poldrack-single-stim,483,645047,0.0-6.2-133.2,go_nogo_deval,445,,<div class = centerbox><div class = fixation>+</div></div>,none,500,test,,,,,,,,,,,,-1,-1,850,0,stim,poldrack-single-stim,484,645899,0.0-6.2-134.2,go_nogo_deval,445,,<img class = center src='/static/experiments/go_nogo_deval/images/green_rhombus.png'></img>,32,850,test,green_rhombus,nogo1,-1,44,2,,,,,,,-1,-1,1400,0,ITI,poldrack-single-stim,485,647301,0.0-6.2-135.2,go_nogo_deval,445,,<div></div>,32,1400,test,,,,,,,,,,,,-1,-1,500,0,fixation,poldrack-single-stim,486,647803,0.0-6.2-136.2,go_nogo_deval,445,,<div class = centerbox><div class = fixation>+</div></div>,none,500,test,,,,,,,,,,,,444,32,850,0,stim,poldrack-single-stim,487,648655,0.0-6.2-137.2,go_nogo_deval,445,,<img class = center src='/static/experiments/go_nogo_deval/images/blue_circle.png'></img>,32,850,test,blue_circle,go1,32,45,2,,,,,,,-1,-1,1400,0,ITI,poldrack-single-stim,488,650055,0.0-6.2-138.2,go_nogo_deval,445,,<div></div>,32,1400,test,,,,,,,,,,,,-1,-1,500,0,fixation,poldrack-single-stim,489,650557,0.0-6.2-139.2,go_nogo_deval,445,,<div class = centerbox><div class = fixation>+</div></div>,none,500,test,,,,,,,,,,,,434,32,850,0,stim,poldrack-single-stim,490,651408,0.0-6.2-140.2,go_nogo_deval,445,,<img class = center src='/static/experiments/go_nogo_deval/images/blue_circle.png'></img>,32,850,test,blue_circle,go1,32,46,2,,,,,,,-1,-1,1400,0,ITI,poldrack-single-stim,491,652810,0.0-6.2-141.2,go_nogo_deval,445,,<div></div>,32,1400,test,,,,,,,,,,,,-1,-1,500,0,fixation,poldrack-single-stim,492,653311,0.0-6.2-142.2,go_nogo_deval,445,,<div class = centerbox><div class = fixation>+</div></div>,none,500,test,,,,,,,,,,,,403,32,850,0,stim,poldrack-single-stim,493,654163,0.0-6.2-143.2,go_nogo_deval,445,,<img class = center src='/static/experiments/go_nogo_deval/images/purple_pentagon.png'></img>,32,850,test,purple_pentagon,go2,32,47,2,,,,,,,-1,-1,1400,0,ITI,poldrack-single-stim,494,655564,0.0-6.2-144.2,go_nogo_deval,445,,<div></div>,32,1400,test,,,,,,,,,,,,3973,13,3973,0,practice-no-stop-feedback,poldrack-single-stim,495,659542,0.0-6.3-0.3,go_nogo_deval,445,,<div class = centerbox><p class = block-text><br>Please take this time to read your feedback and to take a short break! Press enter to continue</p><p class = block-text><strong>Average reaction time:  441 ms. Accuracy: 100%</strong></p></div>,13,3973,,,,,,,,,,,,,-1,-1,500,0,fixation,poldrack-single-stim,496,660043,0.0-6.3-1.3,go_nogo_deval,445,,<div class = centerbox><div class = fixation>+</div></div>,none,500,test,,,,,,,,,,,,465,32,850,0,stim,poldrack-single-stim,497,660895,0.0-6.3-2.3,go_nogo_deval,445,,<img class = center src='/static/experiments/go_nogo_deval/images/blue_circle.png'></img>,32,850,test,blue_circle,go1,32,0,3,,,,,,,-1,-1,1400,0,ITI,poldrack-single-stim,498,662297,0.0-6.3-3.3,go_nogo_deval,445,,<div></div>,32,1400,test,,,,,,,,,,,,-1,-1,500,0,fixation,poldrack-single-stim,499,662799,0.0-6.3-4.3,go_nogo_deval,445,,<div class = centerbox><div class = fixation>+</div></div>,none,500,test,,,,,,,,,,,,399,32,850,0,stim,poldrack-single-stim,500,663650,0.0-6.3-5.3,go_nogo_deval,445,,<img class = center src='/static/experiments/go_nogo_deval/images/purple_pentagon.png'></img>,32,850,test,purple_pentagon,go2,32,1,3,,,,,,,-1,-1,1400,0,ITI,poldrack-single-stim,501,665052,0.0-6.3-6.3,go_nogo_deval,445,,<div></div>,32,1400,test,,,,,,,,,,,,-1,-1,500,0,fixation,poldrack-single-stim,502,665553,0.0-6.3-7.3,go_nogo_deval,445,,<div class = centerbox><div class = fixation>+</div></div>,none,500,test,,,,,,,,,,,,-1,-1,850,0,stim,poldrack-single-stim,503,666405,0.0-6.3-8.3,go_nogo_deval,445,,<img class = center src='/static/experiments/go_nogo_deval/images/green_rhombus.png'></img>,32,850,test,green_rhombus,nogo1,-1,2,3,,,,,,,-1,-1,1400,0,ITI,poldrack-single-stim,504,667806,0.0-6.3-9.3,go_nogo_deval,445,,<div></div>,32,1400,test,,,,,,,,,,,,-1,-1,500,0,fixation,poldrack-single-stim,505,668308,0.0-6.3-10.3,go_nogo_deval,445,,<div class = centerbox><div class = fixation>+</div></div>,none,500,test,,,,,,,,,,,,-1,-1,850,0,stim,poldrack-single-stim,506,669159,0.0-6.3-11.3,go_nogo_deval,445,,<img class = center src='/static/experiments/go_nogo_deval/images/green_rhombus.png'></img>,32,850,test,green_rhombus,nogo1,-1,3,3,,,,,,,-1,-1,1400,0,ITI,poldrack-single-stim,507,670561,0.0-6.3-12.3,go_nogo_deval,445,,<div></div>,32,1400,test,,,,,,,,,,,,-1,-1,500,0,fixation,poldrack-single-stim,508,671063,0.0-6.3-13.3,go_nogo_deval,445,,<div class = centerbox><div class = fixation>+</div></div>,none,500,test,,,,,,,,,,,,404,32,850,0,stim,poldrack-single-stim,509,671915,0.0-6.3-14.3,go_nogo_deval,445,,<img class = center src='/static/experiments/go_nogo_deval/images/purple_pentagon.png'></img>,32,850,test,purple_pentagon,go2,32,4,3,,,,,,,-1,-1,1400,0,ITI,poldrack-single-stim,510,673317,0.0-6.3-15.3,go_nogo_deval,445,,<div></div>,32,1400,test,,,,,,,,,,,,-1,-1,500,0,fixation,poldrack-single-stim,511,673819,0.0-6.3-16.3,go_nogo_deval,445,,<div class = centerbox><div class = fixation>+</div></div>,none,500,test,,,,,,,,,,,,348,32,850,0,stim,poldrack-single-stim,512,674671,0.0-6.3-17.3,go_nogo_deval,445,,<img class = center src='/static/experiments/go_nogo_deval/images/purple_pentagon.png'></img>,32,850,test,purple_pentagon,go2,32,5,3,,,,,,,-1,-1,1400,0,ITI,poldrack-single-stim,513,676072,0.0-6.3-18.3,go_nogo_deval,445,,<div></div>,32,1400,test,,,,,,,,,,,,-1,-1,500,0,fixation,poldrack-single-stim,514,676574,0.0-6.3-19.3,go_nogo_deval,445,,<div class = centerbox><div class = fixation>+</div></div>,none,500,test,,,,,,,,,,,,450,32,850,0,stim,poldrack-single-stim,515,677426,0.0-6.3-20.3,go_nogo_deval,445,,<img class = center src='/static/experiments/go_nogo_deval/images/blue_circle.png'></img>,32,850,test,blue_circle,go1,32,6,3,,,,,,,-1,-1,1400,0,ITI,poldrack-single-stim,516,678828,0.0-6.3-21.3,go_nogo_deval,445,,<div></div>,32,1400,test,,,,,,,,,,,,-1,-1,500,0,fixation,poldrack-single-stim,517,679329,0.0-6.3-22.3,go_nogo_deval,445,,<div class = centerbox><div class = fixation>+</div></div>,none,500,test,,,,,,,,,,,,429,32,850,0,stim,poldrack-single-stim,518,680181,0.0-6.3-23.3,go_nogo_deval,445,,<img class = center src='/static/experiments/go_nogo_deval/images/purple_pentagon.png'></img>,32,850,test,purple_pentagon,go2,32,7,3,,,,,,,-1,-1,1400,0,ITI,poldrack-single-stim,519,681583,0.0-6.3-24.3,go_nogo_deval,445,,<div></div>,32,1400,test,,,,,,,,,,,,-1,-1,500,0,fixation,poldrack-single-stim,520,682084,0.0-6.3-25.3,go_nogo_deval,445,,<div class = centerbox><div class = fixation>+</div></div>,none,500,test,,,,,,,,,,,,-1,-1,850,0,stim,poldrack-single-stim,521,682936,0.0-6.3-26.3,go_nogo_deval,445,,<img class = center src='/static/experiments/go_nogo_deval/images/red_triangle.png'></img>,32,850,test,red_triangle,nogo2,-1,8,3,,,,,,,-1,-1,1400,0,ITI,poldrack-single-stim,522,684338,0.0-6.3-27.3,go_nogo_deval,445,,<div></div>,32,1400,test,,,,,,,,,,,,-1,-1,500,0,fixation,poldrack-single-stim,523,684840,0.0-6.3-28.3,go_nogo_deval,445,,<div class = centerbox><div class = fixation>+</div></div>,none,500,test,,,,,,,,,,,,-1,-1,850,0,stim,poldrack-single-stim,524,685691,0.0-6.3-29.3,go_nogo_deval,445,,<img class = center src='/static/experiments/go_nogo_deval/images/red_triangle.png'></img>,32,850,test,red_triangle,nogo2,-1,9,3,,,,,,,-1,-1,1400,0,ITI,poldrack-single-stim,525,687093,0.0-6.3-30.3,go_nogo_deval,445,,<div></div>,32,1400,test,,,,,,,,,,,,-1,-1,500,0,fixation,poldrack-single-stim,526,687594,0.0-6.3-31.3,go_nogo_deval,445,,<div class = centerbox><div class = fixation>+</div></div>,none,500,test,,,,,,,,,,,,545,32,850,0,stim,poldrack-single-stim,527,688446,0.0-6.3-32.3,go_nogo_deval,445,,<img class = center src='/static/experiments/go_nogo_deval/images/purple_pentagon.png'></img>,32,850,test,purple_pentagon,go2,32,10,3,,,,,,,-1,-1,1400,0,ITI,poldrack-single-stim,528,689847,0.0-6.3-33.3,go_nogo_deval,445,,<div></div>,32,1400,test,,,,,,,,,,,,-1,-1,500,0,fixation,poldrack-single-stim,529,690348,0.0-6.3-34.3,go_nogo_deval,445,,<div class = centerbox><div class = fixation>+</div></div>,none,500,test,,,,,,,,,,,,593,32,850,0,stim,poldrack-single-stim,530,691200,0.0-6.3-35.3,go_nogo_deval,445,,<img class = center src='/static/experiments/go_nogo_deval/images/purple_pentagon.png'></img>,32,850,test,purple_pentagon,go2,32,11,3,,,,,,,-1,-1,1400,0,ITI,poldrack-single-stim,531,692601,0.0-6.3-36.3,go_nogo_deval,445,,<div></div>,32,1400,test,,,,,,,,,,,,-1,-1,500,0,fixation,poldrack-single-stim,532,693103,0.0-6.3-37.3,go_nogo_deval,445,,<div class = centerbox><div class = fixation>+</div></div>,none,500,test,,,,,,,,,,,,-1,-1,850,0,stim,poldrack-single-stim,533,693954,0.0-6.3-38.3,go_nogo_deval,445,,<img class = center src='/static/experiments/go_nogo_deval/images/green_rhombus.png'></img>,32,850,test,green_rhombus,nogo1,-1,12,3,,,,,,,-1,-1,1400,0,ITI,poldrack-single-stim,534,695356,0.0-6.3-39.3,go_nogo_deval,445,,<div></div>,32,1400,test,,,,,,,,,,,,-1,-1,500,0,fixation,poldrack-single-stim,535,695857,0.0-6.3-40.3,go_nogo_deval,445,,<div class = centerbox><div class = fixation>+</div></div>,none,500,test,,,,,,,,,,,,460,32,850,0,stim,poldrack-single-stim,536,696708,0.0-6.3-41.3,go_nogo_deval,445,,<img class = center src='/static/experiments/go_nogo_deval/images/blue_circle.png'></img>,32,850,test,blue_circle,go1,32,13,3,,,,,,,-1,-1,1400,0,ITI,poldrack-single-stim,537,698110,0.0-6.3-42.3,go_nogo_deval,445,,<div></div>,32,1400,test,,,,,,,,,,,,-1,-1,500,0,fixation,poldrack-single-stim,538,698612,0.0-6.3-43.3,go_nogo_deval,445,,<div class = centerbox><div class = fixation>+</div></div>,none,500,test,,,,,,,,,,,,395,32,850,0,stim,poldrack-single-stim,539,699463,0.0-6.3-44.3,go_nogo_deval,445,,<img class = center src='/static/experiments/go_nogo_deval/images/blue_circle.png'></img>,32,850,test,blue_circle,go1,32,14,3,,,,,,,-1,-1,1400,0,ITI,poldrack-single-stim,540,700864,0.0-6.3-45.3,go_nogo_deval,445,,<div></div>,32,1400,test,,,,,,,,,,,,-1,-1,500,0,fixation,poldrack-single-stim,541,701366,0.0-6.3-46.3,go_nogo_deval,445,,<div class = centerbox><div class = fixation>+</div></div>,none,500,test,,,,,,,,,,,,386,32,850,0,stim,poldrack-single-stim,542,702217,0.0-6.3-47.3,go_nogo_deval,445,,<img class = center src='/static/experiments/go_nogo_deval/images/blue_circle.png'></img>,32,850,test,blue_circle,go1,32,15,3,,,,,,,-1,-1,1400,0,ITI,poldrack-single-stim,543,703619,0.0-6.3-48.3,go_nogo_deval,445,,<div></div>,32,1400,test,,,,,,,,,,,,-1,-1,500,0,fixation,poldrack-single-stim,544,704121,0.0-6.3-49.3,go_nogo_deval,445,,<div class = centerbox><div class = fixation>+</div></div>,none,500,test,,,,,,,,,,,,511,32,850,0,stim,poldrack-single-stim,545,704972,0.0-6.3-50.3,go_nogo_deval,445,,<img class = center src='/static/experiments/go_nogo_deval/images/purple_pentagon.png'></img>,32,850,test,purple_pentagon,go2,32,16,3,,,,,,,-1,-1,1400,0,ITI,poldrack-single-stim,546,706373,0.0-6.3-51.3,go_nogo_deval,445,,<div></div>,32,1400,test,,,,,,,,,,,,-1,-1,500,0,fixation,poldrack-single-stim,547,706875,0.0-6.3-52.3,go_nogo_deval,445,,<div class = centerbox><div class = fixation>+</div></div>,none,500,test,,,,,,,,,,,,423,32,850,0,stim,poldrack-single-stim,548,707727,0.0-6.3-53.3,go_nogo_deval,445,,<img class = center src='/static/experiments/go_nogo_deval/images/blue_circle.png'></img>,32,850,test,blue_circle,go1,32,17,3,,,,,,,-1,-1,1400,0,ITI,poldrack-single-stim,549,709129,0.0-6.3-54.3,go_nogo_deval,445,,<div></div>,32,1400,test,,,,,,,,,,,,-1,-1,500,0,fixation,poldrack-single-stim,550,709630,0.0-6.3-55.3,go_nogo_deval,445,,<div class = centerbox><div class = fixation>+</div></div>,none,500,test,,,,,,,,,,,,391,32,850,0,stim,poldrack-single-stim,551,710481,0.0-6.3-56.3,go_nogo_deval,445,,<img class = center src='/static/experiments/go_nogo_deval/images/blue_circle.png'></img>,32,850,test,blue_circle,go1,32,18,3,,,,,,,-1,-1,1400,0,ITI,poldrack-single-stim,552,711883,0.0-6.3-57.3,go_nogo_deval,445,,<div></div>,32,1400,test,,,,,,,,,,,,-1,-1,500,0,fixation,poldrack-single-stim,553,712385,0.0-6.3-58.3,go_nogo_deval,445,,<div class = centerbox><div class = fixation>+</div></div>,none,500,test,,,,,,,,,,,,392,32,850,0,stim,poldrack-single-stim,554,713237,0.0-6.3-59.3,go_nogo_deval,445,,<img class = center src='/static/experiments/go_nogo_deval/images/purple_pentagon.png'></img>,32,850,test,purple_pentagon,go2,32,19,3,,,,,,,-1,-1,1400,0,ITI,poldrack-single-stim,555,714639,0.0-6.3-60.3,go_nogo_deval,445,,<div></div>,32,1400,test,,,,,,,,,,,,-1,-1,500,0,fixation,poldrack-single-stim,556,715140,0.0-6.3-61.3,go_nogo_deval,445,,<div class = centerbox><div class = fixation>+</div></div>,none,500,test,,,,,,,,,,,,404,32,850,0,stim,poldrack-single-stim,557,715991,0.0-6.3-62.3,go_nogo_deval,445,,<img class = center src='/static/experiments/go_nogo_deval/images/purple_pentagon.png'></img>,32,850,test,purple_pentagon,go2,32,20,3,,,,,,,-1,-1,1400,0,ITI,poldrack-single-stim,558,717393,0.0-6.3-63.3,go_nogo_deval,445,,<div></div>,32,1400,test,,,,,,,,,,,,-1,-1,500,0,fixation,poldrack-single-stim,559,717895,0.0-6.3-64.3,go_nogo_deval,445,,<div class = centerbox><div class = fixation>+</div></div>,none,500,test,,,,,,,,,,,,372,32,850,0,stim,poldrack-single-stim,560,718747,0.0-6.3-65.3,go_nogo_deval,445,,<img class = center src='/static/experiments/go_nogo_deval/images/blue_circle.png'></img>,32,850,test,blue_circle,go1,32,21,3,,,,,,,-1,-1,1400,0,ITI,poldrack-single-stim,561,720148,0.0-6.3-66.3,go_nogo_deval,445,,<div></div>,32,1400,test,,,,,,,,,,,,-1,-1,500,0,fixation,poldrack-single-stim,562,720649,0.0-6.3-67.3,go_nogo_deval,445,,<div class = centerbox><div class = fixation>+</div></div>,none,500,test,,,,,,,,,,,,407,32,850,0,stim,poldrack-single-stim,563,721500,0.0-6.3-68.3,go_nogo_deval,445,,<img class = center src='/static/experiments/go_nogo_deval/images/purple_pentagon.png'></img>,32,850,test,purple_pentagon,go2,32,22,3,,,,,,,-1,-1,1400,0,ITI,poldrack-single-stim,564,722902,0.0-6.3-69.3,go_nogo_deval,445,,<div></div>,32,1400,test,,,,,,,,,,,,-1,-1,500,0,fixation,poldrack-single-stim,565,723404,0.0-6.3-70.3,go_nogo_deval,445,,<div class = centerbox><div class = fixation>+</div></div>,none,500,test,,,,,,,,,,,,420,32,850,0,stim,poldrack-single-stim,566,724256,0.0-6.3-71.3,go_nogo_deval,445,,<img class = center src='/static/experiments/go_nogo_deval/images/blue_circle.png'></img>,32,850,test,blue_circle,go1,32,23,3,,,,,,,-1,-1,1400,0,ITI,poldrack-single-stim,567,725657,0.0-6.3-72.3,go_nogo_deval,445,,<div></div>,32,1400,test,,,,,,,,,,,,-1,-1,500,0,fixation,poldrack-single-stim,568,726158,0.0-6.3-73.3,go_nogo_deval,445,,<div class = centerbox><div class = fixation>+</div></div>,none,500,test,,,,,,,,,,,,-1,-1,850,0,stim,poldrack-single-stim,569,727010,0.0-6.3-74.3,go_nogo_deval,445,,<img class = center src='/static/experiments/go_nogo_deval/images/green_rhombus.png'></img>,32,850,test,green_rhombus,nogo1,-1,24,3,,,,,,,-1,-1,1400,0,ITI,poldrack-single-stim,570,728412,0.0-6.3-75.3,go_nogo_deval,445,,<div></div>,32,1400,test,,,,,,,,,,,,-1,-1,500,0,fixation,poldrack-single-stim,571,728913,0.0-6.3-76.3,go_nogo_deval,445,,<div class = centerbox><div class = fixation>+</div></div>,none,500,test,,,,,,,,,,,