text,rt,key_press,block_duration,timing_post_trial,trial_id,trial_type,trial_index,time_elapsed,internal_node_id,exp_id,subject_ID,view_history,stimulus,possible_responses,stim_duration,exp_stage,stim,go_nogo_type,correct_response,current_trial,current_block,chosenStim,chosenCond,stimLeft,cond_left,stimRight,cond_right<div class = centerbox><p class = center-block-text>Welcome to the task!</p><p class = center-block-text>Press<strong> enter</strong> to continue.</p></div>,1264,13,1264,0,welcome,poldrack-text,0,1266,0.0-0.0,go_nogo_deval,464,,,,,,,,,,,,,,,,,26349,,,,instruction,poldrack-instructions,1,27617,0.0-1.0,go_nogo_deval,464,"[{""page_index"":0,""viewing_time"":3376},{""page_index"":1,""viewing_time"":22973}]",,,,,,,,,,,,,,,,42172,13,42172,0,stop_intro_phase1,poldrack-single-stim,2,70792,0.0-2.0,go_nogo_deval,464,,"<div class = centerbox><p class = block-text>We will now start the practice for the experiment.<br><br>For these trials, you must press the <strong>spacebar </strong> or have <strong>no response</strong> depending on the shape of the stimulus.  Make sure to respond as quickly and accurately as possible to the shape. <br><br> The responses for each shape are as follows: <ul list-text><li>rhombus: spacebar</li><li>pentagon: spacebar</li><li>triangle: no response</li><li>circle: no response</li></ul></p><p class = block-text>Remember these rules before you proceed.</p><p class = block-text>Press <strong> enter</strong> to begin.</p></div>",13,42172,,,,,,,,,,,,,3237,13,3237,0,practice-no-stop-feedback,poldrack-single-stim,3,74031,0.0-3.0-0.0,go_nogo_deval,464,,<div class = centerbox><p class = block-text>We will now start with a practice session. In this practice concentrate on responding quickly and accurately to each stimuli unless it requires no response.</p><p class = block-text>Press enter to continue.</p></div>,13,3237,,,,,,,,,,,,,-1,-1,500,0,prompt_fixation,poldrack-single-stim,4,74533,0.0-3.0-1.0,go_nogo_deval,464,,<div class = centerbox><div class = fixation>+</div></div>,none,500,practice,,,,,,,,,,,,-1,-1,850,0,stim,poldrack-single-stim,5,75385,0.0-3.0-2.0,go_nogo_deval,464,,<img class = center src='/static/experiments/go_nogo_deval/images/green_pentagon.png'></img>,32,850,practice,green_pentagon,go2,32,0,0,,,,,,,242,32,1400,0,ITI,poldrack-single-stim,6,76788,0.0-3.0-3.0,go_nogo_deval,464,,<div></div>,32,1400,practice,,,,,,,,,,,,-1,-1,500,0,prompt_fixation,poldrack-single-stim,7,77289,0.0-3.0-4.0,go_nogo_deval,464,,<div class = centerbox><div class = fixation>+</div></div>,none,500,practice,,,,,,,,,,,,-1,-1,850,0,stim,poldrack-single-stim,8,78141,0.0-3.0-5.0,go_nogo_deval,464,,<img class = center src='/static/experiments/go_nogo_deval/images/red_circle.png'></img>,32,850,practice,red_circle,nogo2,-1,1,0,,,,,,,-1,-1,1400,0,ITI,poldrack-single-stim,9,79543,0.0-3.0-6.0,go_nogo_deval,464,,<div></div>,32,1400,practice,,,,,,,,,,,,-1,-1,500,0,prompt_fixation,poldrack-single-stim,10,80046,0.0-3.0-7.0,go_nogo_deval,464,,<div class = centerbox><div class = fixation>+</div></div>,none,500,practice,,,,,,,,,,,,-1,-1,850,0,stim,poldrack-single-stim,11,80898,0.0-3.0-8.0,go_nogo_deval,464,,<img class = center src='/static/experiments/go_nogo_deval/images/red_circle.png'></img>,32,850,practice,red_circle,nogo2,-1,2,0,,,,,,,-1,-1,1400,0,ITI,poldrack-single-stim,12,82299,0.0-3.0-9.0,go_nogo_deval,464,,<div></div>,32,1400,practice,,,,,,,,,,,,-1,-1,500,0,prompt_fixation,poldrack-single-stim,13,82801,0.0-3.0-10.0,go_nogo_deval,464,,<div class = centerbox><div class = fixation>+</div></div>,none,500,practice,,,,,,,,,,,,443,32,850,0,stim,poldrack-single-stim,14,83653,0.0-3.0-11.0,go_nogo_deval,464,,<img class = center src='/static/experiments/go_nogo_deval/images/green_pentagon.png'></img>,32,850,practice,green_pentagon,go2,32,3,0,,,,,,,-1,-1,1400,0,ITI,poldrack-single-stim,15,85056,0.0-3.0-12.0,go_nogo_deval,464,,<div></div>,32,1400,practice,,,,,,,,,,,,-1,-1,500,0,prompt_fixation,poldrack-single-stim,16,85558,0.0-3.0-13.0,go_nogo_deval,464,,<div class = centerbox><div class = fixation>+</div></div>,none,500,practice,,,,,,,,,,,,-1,-1,850,0,stim,poldrack-single-stim,17,86409,0.0-3.0-14.0,go_nogo_deval,464,,<img class = center src='/static/experiments/go_nogo_deval/images/blue_rhombus.png'></img>,32,850,practice,blue_rhombus,go1,32,4,0,,,,,,,-1,-1,1400,0,ITI,poldrack-single-stim,18,87810,0.0-3.0-15.0,go_nogo_deval,464,,<div></div>,32,1400,practice,,,,,,,,,,,,-1,-1,500,0,prompt_fixation,poldrack-single-stim,19,88311,0.0-3.0-16.0,go_nogo_deval,464,,<div class = centerbox><div class = fixation>+</div></div>,none,500,practice,,,,,,,,,,,,-1,-1,850,0,stim,poldrack-single-stim,20,89163,0.0-3.0-17.0,go_nogo_deval,464,,<img class = center src='/static/experiments/go_nogo_deval/images/blue_rhombus.png'></img>,32,850,practice,blue_rhombus,go1,32,5,0,,,,,,,-1,-1,1400,0,ITI,poldrack-single-stim,21,90565,0.0-3.0-18.0,go_nogo_deval,464,,<div></div>,32,1400,practice,,,,,,,,,,,,-1,-1,500,0,prompt_fixation,poldrack-single-stim,22,91067,0.0-3.0-19.0,go_nogo_deval,464,,<div class = centerbox><div class = fixation>+</div></div>,none,500,practice,,,,,,,,,,,,-1,-1,850,0,stim,poldrack-single-stim,23,91918,0.0-3.0-20.0,go_nogo_deval,464,,<img class = center src='/static/experiments/go_nogo_deval/images/blue_rhombus.png'></img>,32,850,practice,blue_rhombus,go1,32,6,0,,,,,,,-1,-1,1400,0,ITI,poldrack-single-stim,24,93321,0.0-3.0-21.0,go_nogo_deval,464,,<div></div>,32,1400,practice,,,,,,,,,,,,-1,-1,500,0,prompt_fixation,poldrack-single-stim,25,93822,0.0-3.0-22.0,go_nogo_deval,464,,<div class = centerbox><div class = fixation>+</div></div>,none,500,practice,,,,,,,,,,,,346,32,850,0,stim,poldrack-single-stim,26,94674,0.0-3.0-23.0,go_nogo_deval,464,,<img class = center src='/static/experiments/go_nogo_deval/images/blue_rhombus.png'></img>,32,850,practice,blue_rhombus,go1,32,7,0,,,,,,,-1,-1,1400,0,ITI,poldrack-single-stim,27,96075,0.0-3.0-24.0,go_nogo_deval,464,,<div></div>,32,1400,practice,,,,,,,,,,,,-1,-1,500,0,prompt_fixation,poldrack-single-stim,28,96576,0.0-3.0-25.0,go_nogo_deval,464,,<div class = centerbox><div class = fixation>+</div></div>,none,500,practice,,,,,,,,,,,,449,32,850,0,stim,poldrack-single-stim,29,97428,0.0-3.0-26.0,go_nogo_deval,464,,<img class = center src='/static/experiments/go_nogo_deval/images/green_pentagon.png'></img>,32,850,practice,green_pentagon,go2,32,8,0,,,,,,,-1,-1,1400,0,ITI,poldrack-single-stim,30,98830,0.0-3.0-27.0,go_nogo_deval,464,,<div></div>,32,1400,practice,,,,,,,,,,,,-1,-1,500,0,prompt_fixation,poldrack-single-stim,31,99332,0.0-3.0-28.0,go_nogo_deval,464,,<div class = centerbox><div class = fixation>+</div></div>,none,500,practice,,,,,,,,,,,,-1,-1,850,0,stim,poldrack-single-stim,32,100184,0.0-3.0-29.0,go_nogo_deval,464,,<img class = center src='/static/experiments/go_nogo_deval/images/red_circle.png'></img>,32,850,practice,red_circle,nogo2,-1,9,0,,,,,,,-1,-1,1400,0,ITI,poldrack-single-stim,33,101586,0.0-3.0-30.0,go_nogo_deval,464,,<div></div>,32,1400,practice,,,,,,,,,,,,-1,-1,500,0,prompt_fixation,poldrack-single-stim,34,102087,0.0-3.0-31.0,go_nogo_deval,464,,<div class = centerbox><div class = fixation>+</div></div>,none,500,practice,,,,,,,,,,,,484,32,850,0,stim,poldrack-single-stim,35,102939,0.0-3.0-32.0,go_nogo_deval,464,,<img class = center src='/static/experiments/go_nogo_deval/images/blue_rhombus.png'></img>,32,850,practice,blue_rhombus,go1,32,10,0,,,,,,,-1,-1,1400,0,ITI,poldrack-single-stim,36,104340,0.0-3.0-33.0,go_nogo_deval,464,,<div></div>,32,1400,practice,,,,,,,,,,,,-1,-1,500,0,prompt_fixation,poldrack-single-stim,37,104841,0.0-3.0-34.0,go_nogo_deval,464,,<div class = centerbox><div class = fixation>+</div></div>,none,500,practice,,,,,,,,,,,,-1,-1,850,0,stim,poldrack-single-stim,38,105692,0.0-3.0-35.0,go_nogo_deval,464,,<img class = center src='/static/experiments/go_nogo_deval/images/purple_triangle.png'></img>,32,850,practice,purple_triangle,nogo1,-1,11,0,,,,,,,-1,-1,1400,0,ITI,poldrack-single-stim,39,107094,0.0-3.0-36.0,go_nogo_deval,464,,<div></div>,32,1400,practice,,,,,,,,,,,,-1,-1,500,0,prompt_fixation,poldrack-single-stim,40,107596,0.0-3.0-37.0,go_nogo_deval,464,,<div class = centerbox><div class = fixation>+</div></div>,none,500,practice,,,,,,,,,,,,443,32,850,0,stim,poldrack-single-stim,41,108448,0.0-3.0-38.0,go_nogo_deval,464,,<img class = center src='/static/experiments/go_nogo_deval/images/green_pentagon.png'></img>,32,850,practice,green_pentagon,go2,32,12,0,,,,,,,-1,-1,1400,0,ITI,poldrack-single-stim,42,109850,0.0-3.0-39.0,go_nogo_deval,464,,<div></div>,32,1400,practice,,,,,,,,,,,,-1,-1,500,0,prompt_fixation,poldrack-single-stim,43,110352,0.0-3.0-40.0,go_nogo_deval,464,,<div class = centerbox><div class = fixation>+</div></div>,none,500,practice,,,,,,,,,,,,410,32,850,0,stim,poldrack-single-stim,44,111203,0.0-3.0-41.0,go_nogo_deval,464,,<img class = center src='/static/experiments/go_nogo_deval/images/green_pentagon.png'></img>,32,850,practice,green_pentagon,go2,32,13,0,,,,,,,-1,-1,1400,0,ITI,poldrack-single-stim,45,112605,0.0-3.0-42.0,go_nogo_deval,464,,<div></div>,32,1400,practice,,,,,,,,,,,,-1,-1,500,0,prompt_fixation,poldrack-single-stim,46,113107,0.0-3.0-43.0,go_nogo_deval,464,,<div class = centerbox><div class = fixation>+</div></div>,none,500,practice,,,,,,,,,,,,389,32,850,0,stim,poldrack-single-stim,47,113958,0.0-3.0-44.0,go_nogo_deval,464,,<img class = center src='/static/experiments/go_nogo_deval/images/green_pentagon.png'></img>,32,850,practice,green_pentagon,go2,32,14,0,,,,,,,-1,-1,1400,0,ITI,poldrack-single-stim,48,115360,0.0-3.0-45.0,go_nogo_deval,464,,<div></div>,32,1400,practice,,,,,,,,,,,,-1,-1,500,0,prompt_fixation,poldrack-single-stim,49,115862,0.0-3.0-46.0,go_nogo_deval,464,,<div class = centerbox><div class = fixation>+</div></div>,none,500,practice,,,,,,,,,,,,-1,-1,850,0,stim,poldrack-single-stim,50,116714,0.0-3.0-47.0,go_nogo_deval,464,,<img class = center src='/static/experiments/go_nogo_deval/images/purple_triangle.png'></img>,32,850,practice,purple_triangle,nogo1,-1,15,0,,,,,,,-1,-1,1400,0,ITI,poldrack-single-stim,51,118117,0.0-3.0-48.0,go_nogo_deval,464,,<div></div>,32,1400,practice,,,,,,,,,,,,-1,-1,500,0,prompt_fixation,poldrack-single-stim,52,118619,0.0-3.0-49.0,go_nogo_deval,464,,<div class = centerbox><div class = fixation>+</div></div>,none,500,practice,,,,,,,,,,,,-1,-1,850,0,stim,poldrack-single-stim,53,119470,0.0-3.0-50.0,go_nogo_deval,464,,<img class = center src='/static/experiments/go_nogo_deval/images/purple_triangle.png'></img>,32,850,practice,purple_triangle,nogo1,-1,16,0,,,,,,,-1,-1,1400,0,ITI,poldrack-single-stim,54,120872,0.0-3.0-51.0,go_nogo_deval,464,,<div></div>,32,1400,practice,,,,,,,,,,,,-1,-1,500,0,prompt_fixation,poldrack-single-stim,55,121373,0.0-3.0-52.0,go_nogo_deval,464,,<div class = centerbox><div class = fixation>+</div></div>,none,500,practice,,,,,,,,,,,,773,32,850,0,stim,poldrack-single-stim,56,122224,0.0-3.0-53.0,go_nogo_deval,464,,<img class = center src='/static/experiments/go_nogo_deval/images/blue_rhombus.png'></img>,32,850,practice,blue_rhombus,go1,32,17,0,,,,,,,-1,-1,1400,0,ITI,poldrack-single-stim,57,123626,0.0-3.0-54.0,go_nogo_deval,464,,<div></div>,32,1400,practice,,,,,,,,,,,,7204,13,7204,0,practice-no-stop-feedback,poldrack-single-stim,58,130832,0.0-4.0,go_nogo_deval,464,,<div class = centerbox><p class = block-text><br>Please take this time to read your feedback and to take a short break! Press enter to continue</p><p class = block-text><strong>Average reaction time:  467 ms. Accuracy: 78%</strong></p><p class = block-text>Done with this practice.</p></div>,13,7204,,,,,,,,,,,,,41028,13,41028,0,main_stop_intro_phase3,poldrack-single-stim,59,171862,0.0-5.0,go_nogo_deval,464,,"<div class = centerbox><p class = block-text>We will now start the main phase of the experiment.<br><br>These trials are the same as the trials that you have just completed. <br><br>The rules for each shape are as follows:  <br><ul list-text><li>rhombus: spacebar</li><li>pentagon: spacebar</li><li>triangle: no response</li><li>circle: no response</li></ul></p><p class = block-text>Remember these rules before you proceed, as they will no longer be presented during the trial.</p><p class = block-text>Press <strong> enter</strong> to begin.</p></div>",13,41028,,,,,,,,,,,,,1664,13,1664,0,practice-no-stop-feedback,poldrack-single-stim,60,173526,0.0-6.0-0.0,go_nogo_deval,464,,"<div class = centerbox><p class = block-text>We will now start with a test session. In this test, concentrate on responding quickly and accurately to each stimuli unless it requires no response.</p><p class = block-text>Press enter to continue.</p></div>",13,1664,,,,,,,,,,,,,-1,-1,500,0,fixation,poldrack-single-stim,61,174027,0.0-6.0-1.0,go_nogo_deval,464,,<div class = centerbox><div class = fixation>+</div></div>,none,500,test,,,,,,,,,,,,-1,-1,850,0,stim,poldrack-single-stim,62,174879,0.0-6.0-2.0,go_nogo_deval,464,,<img class = center src='/static/experiments/go_nogo_deval/images/purple_triangle.png'></img>,32,850,test,purple_triangle,nogo1,-1,0,0,,,,,,,-1,-1,1400,0,ITI,poldrack-single-stim,63,176281,0.0-6.0-3.0,go_nogo_deval,464,,<div></div>,32,1400,test,,,,,,,,,,,,-1,-1,500,0,fixation,poldrack-single-stim,64,176782,0.0-6.0-4.0,go_nogo_deval,464,,<div class = centerbox><div class = fixation>+</div></div>,none,500,test,,,,,,,,,,,,513,32,850,0,stim,poldrack-single-stim,65,177634,0.0-6.0-5.0,go_nogo_deval,464,,<img class = center src='/static/experiments/go_nogo_deval/images/blue_rhombus.png'></img>,32,850,test,blue_rhombus,go1,32,1,0,,,,,,,-1,-1,1400,0,ITI,poldrack-single-stim,66,179035,0.0-6.0-6.0,go_nogo_deval,464,,<div></div>,32,1400,test,,,,,,,,,,,,-1,-1,500,0,fixation,poldrack-single-stim,67,179537,0.0-6.0-7.0,go_nogo_deval,464,,<div class = centerbox><div class = fixation>+</div></div>,none,500,test,,,,,,,,,,,,480,32,850,0,stim,poldrack-single-stim,68,180388,0.0-6.0-8.0,go_nogo_deval,464,,<img class = center src='/static/experiments/go_nogo_deval/images/blue_rhombus.png'></img>,32,850,test,blue_rhombus,go1,32,2,0,,,,,,,-1,-1,1400,0,ITI,poldrack-single-stim,69,181789,0.0-6.0-9.0,go_nogo_deval,464,,<div></div>,32,1400,test,,,,,,,,,,,,-1,-1,500,0,fixation,poldrack-single-stim,70,182291,0.0-6.0-10.0,go_nogo_deval,464,,<div class = centerbox><div class = fixation>+</div></div>,none,500,test,,,,,,,,,,,,472,32,850,0,stim,poldrack-single-stim,71,183143,0.0-6.0-11.0,go_nogo_deval,464,,<img class = center src='/static/experiments/go_nogo_deval/images/green_pentagon.png'></img>,32,850,test,green_pentagon,go2,32,3,0,,,,,,,-1,-1,1400,0,ITI,poldrack-single-stim,72,184544,0.0-6.0-12.0,go_nogo_deval,464,,<div></div>,32,1400,test,,,,,,,,,,,,-1,-1,500,0,fixation,poldrack-single-stim,73,185046,0.0-6.0-13.0,go_nogo_deval,464,,<div class = centerbox><div class = fixation>+</div></div>,none,500,test,,,,,,,,,,,,416,32,850,0,stim,poldrack-single-stim,74,185897,0.0-6.0-14.0,go_nogo_deval,464,,<img class = center src='/static/experiments/go_nogo_deval/images/green_pentagon.png'></img>,32,850,test,green_pentagon,go2,32,4,0,,,,,,,-1,-1,1400,0,ITI,poldrack-single-stim,75,187298,0.0-6.0-15.0,go_nogo_deval,464,,<div></div>,32,1400,test,,,,,,,,,,,,-1,-1,500,0,fixation,poldrack-single-stim,76,187800,0.0-6.0-16.0,go_nogo_deval,464,,<div class = centerbox><div class = fixation>+</div></div>,none,500,test,,,,,,,,,,,,385,32,850,0,stim,poldrack-single-stim,77,188651,0.0-6.0-17.0,go_nogo_deval,464,,<img class = center src='/static/experiments/go_nogo_deval/images/green_pentagon.png'></img>,32,850,test,green_pentagon,go2,32,5,0,,,,,,,-1,-1,1400,0,ITI,poldrack-single-stim,78,190052,0.0-6.0-18.0,go_nogo_deval,464,,<div></div>,32,1400,test,,,,,,,,,,,,-1,-1,500,0,fixation,poldrack-single-stim,79,190554,0.0-6.0-19.0,go_nogo_deval,464,,<div class = centerbox><div class = fixation>+</div></div>,none,500,test,,,,,,,,,,,,-1,-1,850,0,stim,poldrack-single-stim,80,191405,0.0-6.0-20.0,go_nogo_deval,464,,<img class = center src='/static/experiments/go_nogo_deval/images/red_circle.png'></img>,32,850,test,red_circle,nogo2,-1,6,0,,,,,,,-1,-1,1400,0,ITI,poldrack-single-stim,81,192807,0.0-6.0-21.0,go_nogo_deval,464,,<div></div>,32,1400,test,,,,,,,,,,,,-1,-1,500,0,fixation,poldrack-single-stim,82,193309,0.0-6.0-22.0,go_nogo_deval,464,,<div class = centerbox><div class = fixation>+</div></div>,none,500,test,,,,,,,,,,,,501,32,850,0,stim,poldrack-single-stim,83,194160,0.0-6.0-23.0,go_nogo_deval,464,,<img class = center src='/static/experiments/go_nogo_deval/images/green_pentagon.png'></img>,32,850,test,green_pentagon,go2,32,7,0,,,,,,,-1,-1,1400,0,ITI,poldrack-single-stim,84,195561,0.0-6.0-24.0,go_nogo_deval,464,,<div></div>,32,1400,test,,,,,,,,,,,,-1,-1,500,0,fixation,poldrack-single-stim,85,196063,0.0-6.0-25.0,go_nogo_deval,464,,<div class = centerbox><div class = fixation>+</div></div>,none,500,test,,,,,,,,,,,,-1,-1,850,0,stim,poldrack-single-stim,86,196914,0.0-6.0-26.0,go_nogo_deval,464,,<img class = center src='/static/experiments/go_nogo_deval/images/red_circle.png'></img>,32,850,test,red_circle,nogo2,-1,8,0,,,,,,,-1,-1,1400,0,ITI,poldrack-single-stim,87,198315,0.0-6.0-27.0,go_nogo_deval,464,,<div></div>,32,1400,test,,,,,,,,,,,,-1,-1,500,0,fixation,poldrack-single-stim,88,198817,0.0-6.0-28.0,go_nogo_deval,464,,<div class = centerbox><div class = fixation>+</div></div>,none,500,test,,,,,,,,,,,,-1,-1,850,0,stim,poldrack-single-stim,89,199669,0.0-6.0-29.0,go_nogo_deval,464,,<img class = center src='/static/experiments/go_nogo_deval/images/red_circle.png'></img>,32,850,test,red_circle,nogo2,-1,9,0,,,,,,,-1,-1,1400,0,ITI,poldrack-single-stim,90,201070,0.0-6.0-30.0,go_nogo_deval,464,,<div></div>,32,1400,test,,,,,,,,,,,,-1,-1,500,0,fixation,poldrack-single-stim,91,201572,0.0-6.0-31.0,go_nogo_deval,464,,<div class = centerbox><div class = fixation>+</div></div>,none,500,test,,,,,,,,,,,,428,32,850,0,stim,poldrack-single-stim,92,202424,0.0-6.0-32.0,go_nogo_deval,464,,<img class = center src='/static/experiments/go_nogo_deval/images/blue_rhombus.png'></img>,32,850,test,blue_rhombus,go1,32,10,0,,,,,,,-1,-1,1400,0,ITI,poldrack-single-stim,93,203825,0.0-6.0-33.0,go_nogo_deval,464,,<div></div>,32,1400,test,,,,,,,,,,,,-1,-1,500,0,fixation,poldrack-single-stim,94,204326,0.0-6.0-34.0,go_nogo_deval,464,,<div class = centerbox><div class = fixation>+</div></div>,none,500,test,,,,,,,,,,,,341,32,850,0,stim,poldrack-single-stim,95,205177,0.0-6.0-35.0,go_nogo_deval,464,,<img class = center src='/static/experiments/go_nogo_deval/images/blue_rhombus.png'></img>,32,850,test,blue_rhombus,go1,32,11,0,,,,,,,-1,-1,1400,0,ITI,poldrack-single-stim,96,206578,0.0-6.0-36.0,go_nogo_deval,464,,<div></div>,32,1400,test,,,,,,,,,,,,-1,-1,500,0,fixation,poldrack-single-stim,97,207079,0.0-6.0-37.0,go_nogo_deval,464,,<div class = centerbox><div class = fixation>+</div></div>,none,500,test,,,,,,,,,,,,421,32,850,0,stim,poldrack-single-stim,98,207931,0.0-6.0-38.0,go_nogo_deval,464,,<img class = center src='/static/experiments/go_nogo_deval/images/blue_rhombus.png'></img>,32,850,test,blue_rhombus,go1,32,12,0,,,,,,,-1,-1,1400,0,ITI,poldrack-single-stim,99,209333,0.0-6.0-39.0,go_nogo_deval,464,,<div></div>,32,1400,test,,,,,,,,,,,,-1,-1,500,0,fixation,poldrack-single-stim,100,209834,0.0-6.0-40.0,go_nogo_deval,464,,<div class = centerbox><div class = fixation>+</div></div>,none,500,test,,,,,,,,,,,,355,32,850,0,stim,poldrack-single-stim,101,210686,0.0-6.0-41.0,go_nogo_deval,464,,<img class = center src='/static/experiments/go_nogo_deval/images/blue_rhombus.png'></img>,32,850,test,blue_rhombus,go1,32,13,0,,,,,,,-1,-1,1400,0,ITI,poldrack-single-stim,102,212087,0.0-6.0-42.0,go_nogo_deval,464,,<div></div>,32,1400,test,,,,,,,,,,,,-1,-1,500,0,fixation,poldrack-single-stim,103,212589,0.0-6.0-43.0,go_nogo_deval,464,,<div class = centerbox><div class = fixation>+</div></div>,none,500,test,,,,,,,,,,,,-1,-1,850,0,stim,poldrack-single-stim,104,213441,0.0-6.0-44.0,go_nogo_deval,464,,<img class = center src='/static/experiments/go_nogo_deval/images/red_circle.png'></img>,32,850,test,red_circle,nogo2,-1,14,0,,,,,,,-1,-1,1400,0,ITI,poldrack-single-stim,105,214843,0.0-6.0-45.0,go_nogo_deval,464,,<div></div>,32,1400,test,,,,,,,,,,,,-1,-1,500,0,fixation,poldrack-single-stim,106,215344,0.0-6.0-46.0,go_nogo_deval,464,,<div class = centerbox><div class = fixation>+</div></div>,none,500,test,,,,,,,,,,,,528,32,850,0,stim,poldrack-single-stim,107,216196,0.0-6.0-47.0,go_nogo_deval,464,,<img class = center src='/static/experiments/go_nogo_deval/images/green_pentagon.png'></img>,32,850,test,green_pentagon,go2,32,15,0,,,,,,,-1,-1,1400,0,ITI,poldrack-single-stim,108,217598,0.0-6.0-48.0,go_nogo_deval,464,,<div></div>,32,1400,test,,,,,,,,,,,,-1,-1,500,0,fixation,poldrack-single-stim,109,218100,0.0-6.0-49.0,go_nogo_deval,464,,<div class = centerbox><div class = fixation>+</div></div>,none,500,test,,,,,,,,,,,,404,32,850,0,stim,poldrack-single-stim,110,218952,0.0-6.0-50.0,go_nogo_deval,464,,<img class = center src='/static/experiments/go_nogo_deval/images/green_pentagon.png'></img>,32,850,test,green_pentagon,go2,32,16,0,,,,,,,-1,-1,1400,0,ITI,poldrack-single-stim,111,220353,0.0-6.0-51.0,go_nogo_deval,464,,<div></div>,32,1400,test,,,,,,,,,,,,-1,-1,500,0,fixation,poldrack-single-stim,112,220855,0.0-6.0-52.0,go_nogo_deval,464,,<div class = centerbox><div class = fixation>+</div></div>,none,500,test,,,,,,,,,,,,-1,-1,850,0,stim,poldrack-single-stim,113,221707,0.0-6.0-53.0,go_nogo_deval,464,,<img class = center src='/static/experiments/go_nogo_deval/images/red_circle.png'></img>,32,850,test,red_circle,nogo2,-1,17,0,,,,,,,-1,-1,1400,0,ITI,poldrack-single-stim,114,223109,0.0-6.0-54.0,go_nogo_deval,464,,<div></div>,32,1400,test,,,,,,,,,,,,-1,-1,500,0,fixation,poldrack-single-stim,115,223610,0.0-6.0-55.0,go_nogo_deval,464,,<div class = centerbox><div class = fixation>+</div></div>,none,500,test,,,,,,,,,,,,-1,-1,850,0,stim,poldrack-single-stim,116,224461,0.0-6.0-56.0,go_nogo_deval,464,,<img class = center src='/static/experiments/go_nogo_deval/images/red_circle.png'></img>,32,850,test,red_circle,nogo2,-1,18,0,,,,,,,-1,-1,1400,0,ITI,poldrack-single-stim,117,225862,0.0-6.0-57.0,go_nogo_deval,464,,<div></div>,32,1400,test,,,,,,,,,,,,-1,-1,500,0,fixation,poldrack-single-stim,118,226363,0.0-6.0-58.0,go_nogo_deval,464,,<div class = centerbox><div class = fixation>+</div></div>,none,500,test,,,,,,,,,,,,510,32,850,0,stim,poldrack-single-stim,119,227214,0.0-6.0-59.0,go_nogo_deval,464,,<img class = center src='/static/experiments/go_nogo_deval/images/blue_rhombus.png'></img>,32,850,test,blue_rhombus,go1,32,19,0,,,,,,,-1,-1,1400,0,ITI,poldrack-single-stim,120,228616,0.0-6.0-60.0,go_nogo_deval,464,,<div></div>,32,1400,test,,,,,,,,,,,,-1,-1,500,0,fixation,poldrack-single-stim,121,229118,0.0-6.0-61.0,go_nogo_deval,464,,<div class = centerbox><div class = fixation>+</div></div>,none,500,test,,,,,,,,,,,,422,32,850,0,stim,poldrack-single-stim,122,229969,0.0-6.0-62.0,go_nogo_deval,464,,<img class = center src='/static/experiments/go_nogo_deval/images/blue_rhombus.png'></img>,32,850,test,blue_rhombus,go1,32,20,0,,,,,,,-1,-1,1400,0,ITI,poldrack-single-stim,123,231370,0.0-6.0-63.0,go_nogo_deval,464,,<div></div>,32,1400,test,,,,,,,,,,,,-1,-1,500,0,fixation,poldrack-single-stim,124,231871,0.0-6.0-64.0,go_nogo_deval,464,,<div class = centerbox><div class = fixation>+</div></div>,none,500,test,,,,,,,,,,,,368,32,850,0,stim,poldrack-single-stim,125,232722,0.0-6.0-65.0,go_nogo_deval,464,,<img class = center src='/static/experiments/go_nogo_deval/images/blue_rhombus.png'></img>,32,850,test,blue_rhombus,go1,32,21,0,,,,,,,-1,-1,1400,0,ITI,poldrack-single-stim,126,234124,0.0-6.0-66.0,go_nogo_deval,464,,<div></div>,32,1400,test,,,,,,,,,,,,-1,-1,500,0,fixation,poldrack-single-stim,127,234625,0.0-6.0-67.0,go_nogo_deval,464,,<div class = centerbox><div class = fixation>+</div></div>,none,500,test,,,,,,,,,,,,-1,-1,850,0,stim,poldrack-single-stim,128,235477,0.0-6.0-68.0,go_nogo_deval,464,,<img class = center src='/static/experiments/go_nogo_deval/images/purple_triangle.png'></img>,32,850,test,purple_triangle,nogo1,-1,22,0,,,,,,,-1,-1,1400,0,ITI,poldrack-single-stim,129,236879,0.0-6.0-69.0,go_nogo_deval,464,,<div></div>,32,1400,test,,,,,,,,,,,,-1,-1,500,0,fixation,poldrack-single-stim,130,237380,0.0-6.0-70.0,go_nogo_deval,464,,<div class = centerbox><div class = fixation>+</div></div>,none,500,test,,,,,,,,,,,,486,32,850,0,stim,poldrack-single-stim,131,238232,0.0-6.0-71.0,go_nogo_deval,464,,<img class = center src='/static/experiments/go_nogo_deval/images/blue_rhombus.png'></img>,32,850,test,blue_rhombus,go1,32,23,0,,,,,,,-1,-1,1400,0,ITI,poldrack-single-stim,132,239634,0.0-6.0-72.0,go_nogo_deval,464,,<div></div>,32,1400,test,,,,,,,,,,,,-1,-1,500,0,fixation,poldrack-single-stim,133,240136,0.0-6.0-73.0,go_nogo_deval,464,,<div class = centerbox><div class = fixation>+</div></div>,none,500,test,,,,,,,,,,,,339,32,850,0,stim,poldrack-single-stim,134,240988,0.0-6.0-74.0,go_nogo_deval,464,,<img class = center src='/static/experiments/go_nogo_deval/images/blue_rhombus.png'></img>,32,850,test,blue_rhombus,go1,32,24,0,,,,,,,-1,-1,1400,0,ITI,poldrack-single-stim,135,242390,0.0-6.0-75.0,go_nogo_deval,464,,<div></div>,32,1400,test,,,,,,,,,,,,-1,-1,500,0,fixation,poldrack-single-stim,136,242891,0.0-6.0-76.0,go_nogo_deval,464,,<div class = centerbox><div class = fixation>+</div></div>,none,500,test,,,,,,,,,,,,352,32,850,0,stim,poldrack-single-stim,137,243743,0.0-6.0-77.0,go_nogo_deval,464,,<img class = center src='/static/experiments/go_nogo_deval/images/green_pentagon.png'></img>,32,850,test,green_pentagon,go2,32,25,0,,,,,,,-1,-1,1400,0,ITI,poldrack-single-stim,138,245145,0.0-6.0-78.0,go_nogo_deval,464,,<div></div>,32,1400,test,,,,,,,,,,,,-1,-1,500,0,fixation,poldrack-single-stim,139,245647,0.0-6.0-79.0,go_nogo_deval,464,,<div class = centerbox><div class = fixation>+</div></div>,none,500,test,,,,,,,,,,,,-1,-1,850,0,stim,poldrack-single-stim,140,246498,0.0-6.0-80.0,go_nogo_deval,464,,<img class = center src='/static/experiments/go_nogo_deval/images/purple_triangle.png'></img>,32,850,test,purple_triangle,nogo1,-1,26,0,,,,,,,-1,-1,1400,0,ITI,poldrack-single-stim,141,247899,0.0-6.0-81.0,go_nogo_deval,464,,<div></div>,32,1400,test,,,,,,,,,,,,-1,-1,500,0,fixation,poldrack-single-stim,142,248401,0.0-6.0-82.0,go_nogo_deval,464,,<div class = centerbox><div class = fixation>+</div></div>,none,500,test,,,,,,,,,,,,490,32,850,0,stim,poldrack-single-stim,143,249253,0.0-6.0-83.0,go_nogo_deval,464,,<img class = center src='/static/experiments/go_nogo_deval/images/blue_rhombus.png'></img>,32,850,test,blue_rhombus,go1,32,27,0,,,,,,,-1,-1,1400,0,ITI,poldrack-single-stim,144,250655,0.0-6.0-84.0,go_nogo_deval,464,,<div></div>,32,1400,test,,,,,,,,,,,,-1,-1,500,0,fixation,poldrack-single-stim,145,251157,0.0-6.0-85.0,go_nogo_deval,464,,<div class = centerbox><div class = fixation>+</div></div>,none,500,test,,,,,,,,,,,,421,32,850,0,stim,poldrack-single-stim,146,252009,0.0-6.0-86.0,go_nogo_deval,464,,<img class = center src='/static/experiments/go_nogo_deval/images/green_pentagon.png'></img>,32,850,test,green_pentagon,go2,32,28,0,,,,,,,-1,-1,1400,0,ITI,poldrack-single-stim,147,253411,0.0-6.0-87.0,go_nogo_deval,464,,<div></div>,32,1400,test,,,,,,,,,,,,-1,-1,500,0,fixation,poldrack-single-stim,148,253913,0.0-6.0-88.0,go_nogo_deval,464,,<div class = centerbox><div class = fixation>+</div></div>,none,500,test,,,,,,,,,,,,-1,-1,850,0,stim,poldrack-single-stim,149,254764,0.0-6.0-89.0,go_nogo_deval,464,,<img class = center src='/static/experiments/go_nogo_deval/images/purple_triangle.png'></img>,32,850,test,purple_triangle,nogo1,-1,29,0,,,,,,,-1,-1,1400,0,ITI,poldrack-single-stim,150,256164,0.0-6.0-90.0,go_nogo_deval,464,,<div></div>,32,1400,test,,,,,,,,,,,,-1,-1,500,0,fixation,poldrack-single-stim,151,256665,0.0-6.0-91.0,go_nogo_deval,464,,<div class = centerbox><div class = fixation>+</div></div>,none,500,test,,,,,,,,,,,,583,32,850,0,stim,poldrack-single-stim,152,257517,0.0-6.0-92.0,go_nogo_deval,464,,<img class = center src='/static/experiments/go_nogo_deval/images/green_pentagon.png'></img>,32,850,test,green_pentagon,go2,32,30,0,,,,,,,-1,-1,1400,0,ITI,poldrack-single-stim,153,258918,0.0-6.0-93.0,go_nogo_deval,464,,<div></div>,32,1400,test,,,,,,,,,,,,-1,-1,500,0,fixation,poldrack-single-stim,154,259419,0.0-6.0-94.0,go_nogo_deval,464,,<div class = centerbox><div class = fixation>+</div></div>,none,500,test,,,,,,,,,,,,-1,-1,850,0,stim,poldrack-single-stim,155,260271,0.0-6.0-95.0,go_nogo_deval,464,,<img class = center src='/static/experiments/go_nogo_deval/images/red_circle.png'></img>,32,850,test,red_circle,nogo2,-1,31,0,,,,,,,-1,-1,1400,0,ITI,poldrack-single-stim,156,261673,0.0-6.0-96.0,go_nogo_deval,464,,<div></div>,32,1400,test,,,,,,,,,,,,-1,-1,500,0,fixation,poldrack-single-stim,157,262175,0.0-6.0-97.0,go_nogo_deval,464,,<div class = centerbox><div class = fixation>+</div></div>,none,500,test,,,,,,,,,,,,440,32,850,0,stim,poldrack-single-stim,158,263027,0.0-6.0-98.0,go_nogo_deval,464,,<img class = center src='/static/experiments/go_nogo_deval/images/blue_rhombus.png'></img>,32,850,test,blue_rhombus,go1,32,32,0,,,,,,,-1,-1,1400,0,ITI,poldrack-single-stim,159,264428,0.0-6.0-99.0,go_nogo_deval,464,,<div></div>,32,1400,test,,,,,,,,,,,,-1,-1,500,0,fixation,poldrack-single-stim,160,264931,0.0-6.0-100.0,go_nogo_deval,464,,<div class = centerbox><div class = fixation>+</div></div>,none,500,test,,,,,,,,,,,,519,32,850,0,stim,poldrack-single-stim,161,265782,0.0-6.0-101.0,go_nogo_deval,464,,<img class = center src='/static/experiments/go_nogo_deval/images/blue_rhombus.png'></img>,32,850,test,blue_rhombus,go1,32,33,0,,,,,,,-1,-1,1400,0,ITI,poldrack-single-stim,162,267184,0.0-6.0-102.0,go_nogo_deval,464,,<div></div>,32,1400,test,,,,,,,,,,,,-1,-1,500,0,fixation,poldrack-single-stim,163,267685,0.0-6.0-103.0,go_nogo_deval,464,,<div class = centerbox><div class = fixation>+</div></div>,none,500,test,,,,,,,,,,,,375,32,850,0,stim,poldrack-single-stim,164,268537,0.0-6.0-104.0,go_nogo_deval,464,,<img class = center src='/static/experiments/go_nogo_deval/images/green_pentagon.png'></img>,32,850,test,green_pentagon,go2,32,34,0,,,,,,,-1,-1,1400,0,ITI,poldrack-single-stim,165,269938,0.0-6.0-105.0,go_nogo_deval,464,,<div></div>,32,1400,test,,,,,,,,,,,,-1,-1,500,0,fixation,poldrack-single-stim,166,270440,0.0-6.0-106.0,go_nogo_deval,464,,<div class = centerbox><div class = fixation>+</div></div>,none,500,test,,,,,,,,,,,,420,32,850,0,stim,poldrack-single-stim,167,271292,0.0-6.0-107.0,go_nogo_deval,464,,<img class = center src='/static/experiments/go_nogo_deval/images/green_pentagon.png'></img>,32,850,test,green_pentagon,go2,32,35,0,,,,,,,-1,-1,1400,0,ITI,poldrack-single-stim,168,272694,0.0-6.0-108.0,go_nogo_deval,464,,<div></div>,32,1400,test,,,,,,,,,,,,-1,-1,500,0,fixation,poldrack-single-stim,169,273196,0.0-6.0-109.0,go_nogo_deval,464,,<div class = centerbox><div class = fixation>+</div></div>,none,500,test,,,,,,,,,,,,-1,-1,850,0,stim,poldrack-single-stim,170,274047,0.0-6.0-110.0,go_nogo_deval,464,,<img class = center src='/static/experiments/go_nogo_deval/images/purple_triangle.png'></img>,32,850,test,purple_triangle,nogo1,-1,36,0,,,,,,,-1,-1,1400,0,ITI,poldrack-single-stim,171,275449,0.0-6.0-111.0,go_nogo_deval,464,,<div></div>,32,1400,test,,,,,,,,,,,,-1,-1,500,0,fixation,poldrack-single-stim,172,275949,0.0-6.0-112.0,go_nogo_deval,464,,<div class = centerbox><div class = fixation>+</div></div>,none,500,test,,,,,,,,,,,,-1,-1,850,0,stim,poldrack-single-stim,173,276801,0.0-6.0-113.0,go_nogo_deval,464,,<img class = center src='/static/experiments/go_nogo_deval/images/purple_triangle.png'></img>,32,850,test,purple_triangle,nogo1,-1,37,0,,,,,,,-1,-1,1400,0,ITI,poldrack-single-stim,174,278203,0.0-6.0-114.0,go_nogo_deval,464,,<div></div>,32,1400,test,,,,,,,,,,,,-1,-1,500,0,fixation,poldrack-single-stim,175,278705,0.0-6.0-115.0,go_nogo_deval,464,,<div class = centerbox><div class = fixation>+</div></div>,none,500,test,,,,,,,,,,,,437,32,850,0,stim,poldrack-single-stim,176,279557,0.0-6.0-116.0,go_nogo_deval,464,,<img class = center src='/static/experiments/go_nogo_deval/images/blue_rhombus.png'></img>,32,850,test,blue_rhombus,go1,32,38,0,,,,,,,-1,-1,1400,0,ITI,poldrack-single-stim,177,280958,0.0-6.0-117.0,go_nogo_deval,464,,<div></div>,32,1400,test,,,,,,,,,,,,-1,-1,500,0,fixation,poldrack-single-stim,178,281459,0.0-6.0-118.0,go_nogo_deval,464,,<div class = centerbox><div class = fixation>+</div></div>,none,500,test,,,,,,,,,,,,393,32,850,0,stim,poldrack-single-stim,179,282311,0.0-6.0-119.0,go_nogo_deval,464,,<img class = center src='/static/experiments/go_nogo_deval/images/green_pentagon.png'></img>,32,850,test,green_pentagon,go2,32,39,0,,,,,,,-1,-1,1400,0,ITI,poldrack-single-stim,180,283713,0.0-6.0-120.0,go_nogo_deval,464,,<div></div>,32,1400,test,,,,,,,,,,,,-1,-1,500,0,fixation,poldrack-single-stim,181,284214,0.0-6.0-121.0,go_nogo_deval,464,,<div class = centerbox><div class = fixation>+</div></div>,none,500,test,,,,,,,,,,,,-1,-1,850,0,stim,poldrack-single-stim,182,285066,0.0-6.0-122.0,go_nogo_deval,464,,<img class = center src='/static/experiments/go_nogo_deval/images/purple_triangle.png'></img>,32,850,test,purple_triangle,nogo1,-1,40,0,,,,,,,-1,-1,1400,0,ITI,poldrack-single-stim,183,286467,0.0-6.0-123.0,go_nogo_deval,464,,<div></div>,32,1400,test,,,,,,,,,,,,-1,-1,500,0,fixation,poldrack-single-stim,184,286968,0.0-6.0-124.0,go_nogo_deval,464,,<div class = centerbox><div class = fixation>+</div></div>,none,500,test,,,,,,,,,,,,-1,-1,850,0,stim,poldrack-single-stim,185,287820,0.0-6.0-125.0,go_nogo_deval,464,,<img class = center src='/static/experiments/go_nogo_deval/images/purple_triangle.png'></img>,32,850,test,purple_triangle,nogo1,-1,41,0,,,,,,,-1,-1,1400,0,ITI,poldrack-single-stim,186,289222,0.0-6.0-126.0,go_nogo_deval,464,,<div></div>,32,1400,test,,,,,,,,,,,,-1,-1,500,0,fixation,poldrack-single-stim,187,289723,0.0-6.0-127.0,go_nogo_deval,464,,<div class = centerbox><div class = fixation>+</div></div>,none,500,test,,,,,,,,,,,,409,32,850,0,stim,poldrack-single-stim,188,290574,0.0-6.0-128.0,go_nogo_deval,464,,<img class = center src='/static/experiments/go_nogo_deval/images/green_pentagon.png'></img>,32,850,test,green_pentagon,go2,32,42,0,,,,,,,-1,-1,1400,0,ITI,poldrack-single-stim,189,291976,0.0-6.0-129.0,go_nogo_deval,464,,<div></div>,32,1400,test,,,,,,,,,,,,-1,-1,500,0,fixation,poldrack-single-stim,190,292477,0.0-6.0-130.0,go_nogo_deval,464,,<div class = centerbox><div class = fixation>+</div></div>,none,500,test,,,,,,,,,,,,727,32,850,0,stim,poldrack-single-stim,191,293329,0.0-6.0-131.0,go_nogo_deval,464,,<img class = center src='/static/experiments/go_nogo_deval/images/green_pentagon.png'></img>,32,850,test,green_pentagon,go2,32,43,0,,,,,,,-1,-1,1400,0,ITI,poldrack-single-stim,192,294730,0.0-6.0-132.0,go_nogo_deval,464,,<div></div>,32,1400,test,,,,,,,,,,,,-1,-1,500,0,fixation,poldrack-single-stim,193,295232,0.0-6.0-133.0,go_nogo_deval,464,,<div class = centerbox><div class = fixation>+</div></div>,none,500,test,,,,,,,,,,,,334,32,850,0,stim,poldrack-single-stim,194,296084,0.0-6.0-134.0,go_nogo_deval,464,,<img class = center src='/static/experiments/go_nogo_deval/images/blue_rhombus.png'></img>,32,850,test,blue_rhombus,go1,32,44,0,,,,,,,-1,-1,1400,0,ITI,poldrack-single-stim,195,297486,0.0-6.0-135.0,go_nogo_deval,464,,<div></div>,32,1400,test,,,,,,,,,,,,-1,-1,500,0,fixation,poldrack-single-stim,196,297988,0.0-6.0-136.0,go_nogo_deval,464,,<div class = centerbox><div class = fixation>+</div></div>,none,500,test,,,,,,,,,,,,335,32,850,0,stim,poldrack-single-stim,197,298839,0.0-6.0-137.0,go_nogo_deval,464,,<img class = center src='/static/experiments/go_nogo_deval/images/green_pentagon.png'></img>,32,850,test,green_pentagon,go2,32,45,0,,,,,,,-1,-1,1400,0,ITI,poldrack-single-stim,198,300240,0.0-6.0-138.0,go_nogo_deval,464,,<div></div>,32,1400,test,,,,,,,,,,,,-1,-1,500,0,fixation,poldrack-single-stim,199,300742,0.0-6.0-139.0,go_nogo_deval,464,,<div class = centerbox><div class = fixation>+</div></div>,none,500,test,,,,,,,,,,,,-1,-1,850,0,stim,poldrack-single-stim,200,301593,0.0-6.0-140.0,go_nogo_deval,464,,<img class = center src='/static/experiments/go_nogo_deval/images/red_circle.png'></img>,32,850,test,red_circle,nogo2,-1,46,0,,,,,,,-1,-1,1400,0,ITI,poldrack-single-stim,201,302995,0.0-6.0-141.0,go_nogo_deval,464,,<div></div>,32,1400,test,,,,,,,,,,,,-1,-1,500,0,fixation,poldrack-single-stim,202,303497,0.0-6.0-142.0,go_nogo_deval,464,,<div class = centerbox><div class = fixation>+</div></div>,none,500,test,,,,,,,,,,,,395,32,850,0,stim,poldrack-single-stim,203,304348,0.0-6.0-143.0,go_nogo_deval,464,,<img class = center src='/static/experiments/go_nogo_deval/images/green_pentagon.png'></img>,32,850,test,green_pentagon,go2,32,47,0,,,,,,,-1,-1,1400,0,ITI,poldrack-single-stim,204,305749,0.0-6.0-144.0,go_nogo_deval,464,,<div></div>,32,1400,test,,,,,,,,,,,,10098,13,10098,0,practice-no-stop-feedback,poldrack-single-stim,205,315852,0.0-6.1-0.1,go_nogo_deval,464,,<div class = centerbox><p class = block-text><br>Please take this time to read your feedback and to take a short break! Press enter to continue</p><p class = block-text><strong>Average reaction time:  437 ms. Accuracy: 100%</strong></p></div>,13,10098,,,,,,,,,,,,,-1,-1,500,0,fixation,poldrack-single-stim,206,316353,0.0-6.1-1.1,go_nogo_deval,464,,<div class = centerbox><div class = fixation>+</div></div>,none,500,test,,,,,,,,,,,,464,32,850,0,stim,poldrack-single-stim,207,317205,0.0-6.1-2.1,go_nogo_deval,464,,<img class = center src='/static/experiments/go_nogo_deval/images/blue_rhombus.png'></img>,32,850,test,blue_rhombus,go1,32,0,1,,,,,,,-1,-1,1400,0,ITI,poldrack-single-stim,208,318606,0.0-6.1-3.1,go_nogo_deval,464,,<div></div>,32,1400,test,,,,,,,,,,,,-1,-1,500,0,fixation,poldrack-single-stim,209,319108,0.0-6.1-4.1,go_nogo_deval,464,,<div class = centerbox><div class = fixation>+</div></div>,none,500,test,,,,,,,,,,,,364,32,850,0,stim,poldrack-single-stim,210,319960,0.0-6.1-5.1,go_nogo_deval,464,,<img class = center src='/static/experiments/go_nogo_deval/images/green_pentagon.png'></img>,32,850,test,green_pentagon,go2,32,1,1,,,,,,,-1,-1,1400,0,ITI,poldrack-single-stim,211,321361,0.0-6.1-6.1,go_nogo_deval,464,,<div></div>,32,1400,test,,,,,,,,,,,,-1,-1,500,0,fixation,poldrack-single-stim,212,321862,0.0-6.1-7.1,go_nogo_deval,464,,<div class = centerbox><div class = fixation>+</div></div>,none,500,test,,,,,,,,,,,,322,32,850,0,stim,poldrack-single-stim,213,322714,0.0-6.1-8.1,go_nogo_deval,464,,<img class = center src='/static/experiments/go_nogo_deval/images/green_pentagon.png'></img>,32,850,test,green_pentagon,go2,32,2,1,,,,,,,-1,-1,1400,0,ITI,poldrack-single-stim,214,324115,0.0-6.1-9.1,go_nogo_deval,464,,<div></div>,32,1400,test,,,,,,,,,,,,-1,-1,500,0,fixation,poldrack-single-stim,215,324616,0.0-6.1-10.1,go_nogo_deval,464,,<div class = centerbox><div class = fixation>+</div></div>,none,500,test,,,,,,,,,,,,357,32,850,0,stim,poldrack-single-stim,216,325468,0.0-6.1-11.1,go_nogo_deval,464,,<img class = center src='/static/experiments/go_nogo_deval/images/blue_rhombus.png'></img>,32,850,test,blue_rhombus,go1,32,3,1,,,,,,,-1,-1,1400,0,ITI,poldrack-single-stim,217,326870,0.0-6.1-12.1,go_nogo_deval,464,,<div></div>,32,1400,test,,,,,,,,,,,,-1,-1,500,0,fixation,poldrack-single-stim,218,327370,0.0-6.1-13.1,go_nogo_deval,464,,<div class = centerbox><div class = fixation>+</div></div>,none,500,test,,,,,,,,,,,,-1,-1,850,0,stim,poldrack-single-stim,219,328222,0.0-6.1-14.1,go_nogo_deval,464,,<img class = center src='/static/experiments/go_nogo_deval/images/purple_triangle.png'></img>,32,850,test,purple_triangle,nogo1,-1,4,1,,,,,,,-1,-1,1400,0,ITI,poldrack-single-stim,220,329623,0.0-6.1-15.1,go_nogo_deval,464,,<div></div>,32,1400,test,,,,,,,,,,,,-1,-1,500,0,fixation,poldrack-single-stim,221,330124,0.0-6.1-16.1,go_nogo_deval,464,,<div class = centerbox><div class = fixation>+</div></div>,none,500,test,,,,,,,,,,,,341,32,850,0,stim,poldrack-single-stim,222,330976,0.0-6.1-17.1,go_nogo_deval,464,,<img class = center src='/static/experiments/go_nogo_deval/images/blue_rhombus.png'></img>,32,850,test,blue_rhombus,go1,32,5,1,,,,,,,-1,-1,1400,0,ITI,poldrack-single-stim,223,332377,0.0-6.1-18.1,go_nogo_deval,464,,<div></div>,32,1400,test,,,,,,,,,,,,-1,-1,500,0,fixation,poldrack-single-stim,224,332878,0.0-6.1-19.1,go_nogo_deval,464,,<div class = centerbox><div class = fixation>+</div></div>,none,500,test,,,,,,,,,,,,-1,-1,850,0,stim,poldrack-single-stim,225,333730,0.0-6.1-20.1,go_nogo_deval,464,,<img class = center src='/static/experiments/go_nogo_deval/images/purple_triangle.png'></img>,32,850,test,purple_triangle,nogo1,-1,6,1,,,,,,,-1,-1,1400,0,ITI,poldrack-single-stim,226,335131,0.0-6.1-21.1,go_nogo_deval,464,,<div></div>,32,1400,test,,,,,,,,,,,,-1,-1,500,0,fixation,poldrack-single-stim,227,335631,0.0-6.1-22.1,go_nogo_deval,464,,<div class = centerbox><div class = fixation>+</div></div>,none,500,test,,,,,,,,,,,,379,32,850,0,stim,poldrack-single-stim,228,336482,0.0-6.1-23.1,go_nogo_deval,464,,<img class = center src='/static/experiments/go_nogo_deval/images/blue_rhombus.png'></img>,32,850,test,blue_rhombus,go1,32,7,1,,,,,,,-1,-1,1400,0,ITI,poldrack-single-stim,229,337884,0.0-6.1-24.1,go_nogo_deval,464,,<div></div>,32,1400,test,,,,,,,,,,,,-1,-1,500,0,fixation,poldrack-single-stim,230,338385,0.0-6.1-25.1,go_nogo_deval,464,,<div class = centerbox><div class = fixation>+</div></div>,none,500,test,,,,,,,,,,,,-1,-1,850,0,stim,poldrack-single-stim,231,339237,0.0-6.1-26.1,go_nogo_deval,464,,<img class = center src='/static/experiments/go_nogo_deval/images/red_circle.png'></img>,32,850,test,red_circle,nogo2,-1,8,1,,,,,,,-1,-1,1400,0,ITI,poldrack-single-stim,232,340638,0.0-6.1-27.1,go_nogo_deval,464,,<div></div>,32,1400,test,,,,,,,,,,,,-1,-1,500,0,fixation,poldrack-single-stim,233,341140,0.0-6.1-28.1,go_nogo_deval,464,,<div class = centerbox><div class = fixation>+</div></div>,none,500,test,,,,,,,,,,,,-1,-1,850,0,stim,poldrack-single-stim,234,341991,0.0-6.1-29.1,go_nogo_deval,464,,<img class = center src='/static/experiments/go_nogo_deval/images/red_circle.png'></img>,32,850,test,red_circle,nogo2,-1,9,1,,,,,,,-1,-1,1400,0,ITI,poldrack-single-stim,235,343393,0.0-6.1-30.1,go_nogo_deval,464,,<div></div>,32,1400,test,,,,,,,,,,,,-1,-1,500,0,fixation,poldrack-single-stim,236,343894,0.0-6.1-31.1,go_nogo_deval,464,,<div class = centerbox><div class = fixation>+</div></div>,none,500,test,,,,,,,,,,,,-1,-1,850,0,stim,poldrack-single-stim,237,344744,0.0-6.1-32.1,go_nogo_deval,464,,<img class = center src='/static/experiments/go_nogo_deval/images/red_circle.png'></img>,32,850,test,red_circle,nogo2,-1,10,1,,,,,,,-1,-1,1400,0,ITI,poldrack-single-stim,238,346146,0.0-6.1-33.1,go_nogo_deval,464,,<div></div>,32,1400,test,,,,,,,,,,,,-1,-1,500,0,fixation,poldrack-single-stim,239,346647,0.0-6.1-34.1,go_nogo_deval,464,,<div class = centerbox><div class = fixation>+</div></div>,none,500,test,,,,,,,,,,,,-1,-1,850,0,stim,poldrack-single-stim,240,347498,0.0-6.1-35.1,go_nogo_deval,464,,<img class = center src='/static/experiments/go_nogo_deval/images/red_circle.png'></img>,32,850,test,red_circle,nogo2,-1,11,1,,,,,,,-1,-1,1400,0,ITI,poldrack-single-stim,241,348899,0.0-6.1-36.1,go_nogo_deval,464,,<div></div>,32,1400,test,,,,,,,,,,,,-1,-1,500,0,fixation,poldrack-single-stim,242,349400,0.0-6.1-37.1,go_nogo_deval,464,,<div class = centerbox><div class = fixation>+</div></div>,none,500,test,,,,,,,,,,,,359,32,850,0,stim,poldrack-single-stim,243,350251,0.0-6.1-38.1,go_nogo_deval,464,,<img class = center src='/static/experiments/go_nogo_deval/images/blue_rhombus.png'></img>,32,850,test,blue_rhombus,go1,32,12,1,,,,,,,-1,-1,1400,0,ITI,poldrack-single-stim,244,351652,0.0-6.1-39.1,go_nogo_deval,464,,<div></div>,32,1400,test,,,,,,,,,,,,-1,-1,500,0,fixation,poldrack-single-stim,245,352154,0.0-6.1-40.1,go_nogo_deval,464,,<div class = centerbox><div class = fixation>+</div></div>,none,500,test,,,,,,,,,,,,417,32,850,0,stim,poldrack-single-stim,246,353006,0.0-6.1-41.1,go_nogo_deval,464,,<img class = center src='/static/experiments/go_nogo_deval/images/green_pentagon.png'></img>,32,850,test,green_pentagon,go2,32,13,1,,,,,,,-1,-1,1400,0,ITI,poldrack-single-stim,247,354407,0.0-6.1-42.1,go_nogo_deval,464,,<div></div>,32,1400,test,,,,,,,,,,,,-1,-1,500,0,fixation,poldrack-single-stim,248,354908,0.0-6.1-43.1,go_nogo_deval,464,,<div class = centerbox><div class = fixation>+</div></div>,none,500,test,,,,,,,,,,,,442,32,850,0,stim,poldrack-single-stim,249,355760,0.0-6.1-44.1,go_nogo_deval,464,,<img class = center src='/static/experiments/go_nogo_deval/images/blue_rhombus.png'></img>,32,850,test,blue_rhombus,go1,32,14,1,,,,,,,-1,-1,1400,0,ITI,poldrack-single-stim,250,357161,0.0-6.1-45.1,go_nogo_deval,464,,<div></div>,32,1400,test,,,,,,,,,,,,-1,-1,500,0,fixation,poldrack-single-stim,251,357662,0.0-6.1-46.1,go_nogo_deval,464,,<div class = centerbox><div class = fixation>+</div></div>,none,500,test,,,,,,,,,,,,343,32,850,0,stim,poldrack-single-stim,252,358514,0.0-6.1-47.1,go_nogo_deval,464,,<img class = center src='/static/experiments/go_nogo_deval/images/blue_rhombus.png'></img>,32,850,test,blue_rhombus,go1,32,15,1,,,,,,,-1,-1,1400,0,ITI,poldrack-single-stim,253,359915,0.0-6.1-48.1,go_nogo_deval,464,,<div></div>,32,1400,test,,,,,,,,,,,,-1,-1,500,0,fixation,poldrack-single-stim,254,360417,0.0-6.1-49.1,go_nogo_deval,464,,<div class = centerbox><div class = fixation>+</div></div>,none,500,test,,,,,,,,,,,,-1,-1,850,0,stim,poldrack-single-stim,255,361268,0.0-6.1-50.1,go_nogo_deval,464,,<img class = center src='/static/experiments/go_nogo_deval/images/purple_triangle.png'></img>,32,850,test,purple_triangle,nogo1,-1,16,1,,,,,,,-1,-1,1400,0,ITI,poldrack-single-stim,256,362670,0.0-6.1-51.1,go_nogo_deval,464,,<div></div>,32,1400,test,,,,,,,,,,,,-1,-1,500,0,fixation,poldrack-single-stim,257,363171,0.0-6.1-52.1,go_nogo_deval,464,,<div class = centerbox><div class = fixation>+</div></div>,none,500,test,,,,,,,,,,,,392,32,850,0,stim,poldrack-single-stim,258,364023,0.0-6.1-53.1,go_nogo_deval,464,,<img class = center src='/static/experiments/go_nogo_deval/images/blue_rhombus.png'></img>,32,850,test,blue_rhombus,go1,32,17,1,,,,,,,-1,-1,1400,0,ITI,poldrack-single-stim,259,365425,0.0-6.1-54.1,go_nogo_deval,464,,<div></div>,32,1400,test,,,,,,,,,,,,-1,-1,500,0,fixation,poldrack-single-stim,260,365926,0.0-6.1-55.1,go_nogo_deval,464,,<div class = centerbox><div class = fixation>+</div></div>,none,500,test,,,,,,,,,,,,482,32,850,0,stim,poldrack-single-stim,261,366777,0.0-6.1-56.1,go_nogo_deval,464,,<img class = center src='/static/experiments/go_nogo_deval/images/green_pentagon.png'></img>,32,850,test,green_pentagon,go2,32,18,1,,,,,,,-1,-1,1400,0,ITI,poldrack-single-stim,262,368179,0.0-6.1-57.1,go_nogo_deval,464,,<div></div>,32,1400,test,,,,,,,,,,,,-1,-1,500,0,fixation,poldrack-single-stim,263,368680,0.0-6.1-58.1,go_nogo_deval,464,,<div class = centerbox><div class = fixation>+</div></div>,none,500,test,,,,,,,,,,,,371,32,850,0,stim,poldrack-single-stim,264,369532,0.0-6.1-59.1,go_nogo_deval,464,,<img class = center src='/static/experiments/go_nogo_deval/images/green_pentagon.png'></img>,32,850,test,green_pentagon,go2,32,19,1,,,,,,,-1,-1,1400,0,ITI,poldrack-single-stim,265,370934,0.0-6.1-60.1,go_nogo_deval,464,,<div></div>,32,1400,test,,,,,,,,,,,,-1,-1,500,0,fixation,poldrack-single-stim,266,371435,0.0-6.1-61.1,go_nogo_deval,464,,<div class = centerbox><div class = fixation>+</div></div>,none,500,test,,,,,,,,,,,,-1,-1,850,0,stim,poldrack-single-stim,267,372286,0.0-6.1-62.1,go_nogo_deval,464,,<img class = center src='/static/experiments/go_nogo_deval/images/purple_triangle.png'></img>,32,850,test,purple_triangle,nogo1,-1,20,1,,,,,,,-1,-1,1400,0,ITI,poldrack-single-stim,268,373687,0.0-6.1-63.1,go_nogo_deval,464,,<div></div>,32,1400,test,,,,,,,,,,,,-1,-1,500,0,fixation,poldrack-single-stim,269,374189,0.0-6.1-64.1,go_nogo_deval,464,,<div class = centerbox><div class = fixation>+</div></div>,none,500,test,,,,,,,,,,,,375,32,850,0,stim,poldrack-single-stim,270,375041,0.0-6.1-65.1,go_nogo_deval,464,,<img class = center src='/static/experiments/go_nogo_deval/images/blue_rhombus.png'></img>,32,850,test,blue_rhombus,go1,32,21,1,,,,,,,-1,-1,1400,0,ITI,poldrack-single-stim,271,376442,0.0-6.1-66.1,go_nogo_deval,464,,<div></div>,32,1400,test,,,,,,,,,,,,-1,-1,500,0,fixation,poldrack-single-stim,272,376944,0.0-6.1-67.1,go_nogo_deval,464,,<div class = centerbox><div class = fixation>+</div></div>,none,500,test,,,,,,,,,,,,366,32,850,0,stim,poldrack-single-stim,273,377794,0.0-6.1-68.1,go_nogo_deval,464,,<img class = center src='/static/experiments/go_nogo_deval/images/green_pentagon.png'></img>,32,850,test,green_pentagon,go2,32,22,1,,,,,,,-1,-1,1400,0,ITI,poldrack-single-stim,274,379196,0.0-6.1-69.1,go_nogo_deval,464,,<div></div>,32,1400,test,,,,,,,,,,,,-1,-1,500,0,fixation,poldrack-single-stim,275,379697,0.0-6.1-70.1,go_nogo_deval,464,,<div class = centerbox><div class = fixation>+</div></div>,none,500,test,,,,,,,,,,,,-1,-1,850,0,stim,poldrack-single-stim,276,380550,0.0-6.1-71.1,go_nogo_deval,464,,<img class = center src='/static/experiments/go_nogo_deval/images/purple_triangle.png'></img>,32,850,test,purple_triangle,nogo1,-1,23,1,,,,,,,-1,-1,1400,0,ITI,poldrack-single-stim,277,381951,0.0-6.1-72.1,go_nogo_deval,464,,<div></div>,32,1400,test,,,,,,,,,,,,-1,-1,500,0,fixation,poldrack-single-stim,278,382453,0.0-6.1-73.1,go_nogo_deval,464,,<div class = centerbox><div class = fixation>+</div></div>,none,500,test,,,,,,,,,,,,437,32,850,0,stim,poldrack-single-stim,279,383303,0.0-6.1-74.1,go_nogo_deval,464,,<img class = center src='/static/experiments/go_nogo_deval/images/blue_rhombus.png'></img>,32,850,test,blue_rhombus,go1,32,24,1,,,,,,,-1,-1,1400,0,ITI,poldrack-single-stim,280,384704,0.0-6.1-75.1,go_nogo_deval,464,,<div></div>,32,1400,test,,,,,,,,,,,,-1,-1,500,0,fixation,poldrack-single-stim,281,385205,0.0-6.1-76.1,go_nogo_deval,464,,<div class = centerbox><div class = fixation>+</div></div>,none,500,test,,,,,,,,,,,,-1,-1,850,0,stim,poldrack-single-stim,282,386056,0.0-6.1-77.1,go_nogo_deval,464,,<img class = center src='/static/experiments/go_nogo_deval/images/purple_triangle.png'></img>,32,850,test,purple_triangle,nogo1,-1,25,1,,,,,,,-1,-1,1400,0,ITI,poldrack-single-stim,283,387457,0.0-6.1-78.1,go_nogo_deval,464,,<div></div>,32,1400,test,,,,,,,,,,,,-1,-1,500,0,fixation,poldrack-single-stim,284,387958,0.0-6.1-79.1,go_nogo_deval,464,,<div class = centerbox><div class = fixation>+</div></div>,none,500,test,,,,,,,,,,,,387,32,850,0,stim,poldrack-single-stim,285,388810,0.0-6.1-80.1,go_nogo_deval,464,,<img class = center src='/static/experiments/go_nogo_deval/images/green_pentagon.png'></img>,32,850,test,green_pentagon,go2,32,26,1,,,,,,,-1,-1,1400,0,ITI,poldrack-single-stim,286,390211,0.0-6.1-81.1,go_nogo_deval,464,,<div></div>,32,1400,test,,,,,,,,,,,,-1,-1,500,0,fixation,poldrack-single-stim,287,390713,0.0-6.1-82.1,go_nogo_deval,464,,<div class = centerbox><div class = fixation>+</div></div>,none,500,test,,,,,,,,,,,,355,32,850,0,stim,poldrack-single-stim,288,391563,0.0-6.1-83.1,go_nogo_deval,464,,<img class = center src='/static/experiments/go_nogo_deval/images/blue_rhombus.png'></img>,32,850,test,blue_rhombus,go1,32,27,1,,,,,,,-1,-1,1400,0,ITI,poldrack-single-stim,289,392965,0.0-6.1-84.1,go_nogo_deval,464,,<div></div>,32,1400,test,,,,,,,,,,,,-1,-1,500,0,fixation,poldrack-single-stim,290,393467,0.0-6.1-85.1,go_nogo_deval,464,,<div class = centerbox><div class = fixation>+</div></div>,none,500,test,,,,,,,,,,,,403,32,850,0,stim,poldrack-single-stim,291,394319,0.0-6.1-86.1,go_nogo_deval,464,,<img class = center src='/static/experiments/go_nogo_deval/images/green_pentagon.png'></img>,32,850,test,green_pentagon,go2,32,28,1,,,,,,,-1,-1,1400,0,ITI,poldrack-single-stim,292,395720,0.0-6.1-87.1,go_nogo_deval,464,,<div></div>,32,1400,test,,,,,,,,,,,,-1,-1,500,0,fixation,poldrack-single-stim,293,396221,0.0-6.1-88.1,go_nogo_deval,464,,<div class = centerbox><div class = fixation>+</div></div>,none,500,test,,,,,,,,,,,,360,32,850,0,stim,poldrack-single-stim,294,397072,0.0-6.1-89.1,go_nogo_deval,464,,<img class = center src='/static/experiments/go_nogo_deval/images/green_pentagon.png'></img>,32,850,test,green_pentagon,go2,32,29,1,,,,,,,-1,-1,1400,0,ITI,poldrack-single-stim,295,398474,0.0-6.1-90.1,go_nogo_deval,464,,<div></div>,32,1400,test,,,,,,,,,,,,-1,-1,500,0,fixation,poldrack-single-stim,296,398976,0.0-6.1-91.1,go_nogo_deval,464,,<div class = centerbox><div class = fixation>+</div></div>,none,500,test,,,,,,,,,,,,350,32,850,0,stim,poldrack-single-stim,297,399827,0.0-6.1-92.1,go_nogo_deval,464,,<img class = center src='/static/experiments/go_nogo_deval/images/green_pentagon.png'></img>,32,850,test,green_pentagon,go2,32,30,1,,,,,,,-1,-1,1400,0,ITI,poldrack-single-stim,298,401228,0.0-6.1-93.1,go_nogo_deval,464,,<div></div>,32,1400,test,,,,,,,,,,,,-1,-1,500,0,fixation,poldrack-single-stim,299,401729,0.0-6.1-94.1,go_nogo_deval,464,,<div class = centerbox><div class = fixation>+</div></div>,none,500,test,,,,,,,,,,,,398,32,850,0,stim,poldrack-single-stim,300,402580,0.0-6.1-95.1,go_nogo_deval,464,,<img class = center src='/static/experiments/go_nogo_deval/images/blue_rhombus.png'></img>,32,850,test,blue_rhombus,go1,32,31,1,,,,,,,-1,-1,1400,0,ITI,poldrack-single-stim,301,403981,0.0-6.1-96.1,go_nogo_deval,464,,<div></div>,32,1400,test,,,,,,,,,,,,-1,-1,500,0,fixation,poldrack-single-stim,302,404483,0.0-6.1-97.1,go_nogo_deval,464,,<div class = centerbox><div class = fixation>+</div></div>,none,500,test,,,,,,,,,,,,-1,-1,850,0,stim,poldrack-single-stim,303,405333,0.0-6.1-98.1,go_nogo_deval,464,,<img class = center src='/static/experiments/go_nogo_deval/images/red_circle.png'></img>,32,850,test,red_circle,nogo2,-1,32,1,,,,,,,-1,-1,1400,0,ITI,poldrack-single-stim,304,406735,0.0-6.1-99.1,go_nogo_deval,464,,<div></div>,32,1400,test,,,,,,,,,,,,-1,-1,500,0,fixation,poldrack-single-stim,305,407236,0.0-6.1-100.1,go_nogo_deval,464,,<div class = centerbox><div class = fixation>+</div></div>,none,500,test,,,,,,,,,,,,426,32,850,0,stim,poldrack-single-stim,306,408087,0.0-6.1-101.1,go_nogo_deval,464,,<img class = center src='/static/experiments/go_nogo_deval/images/green_pentagon.png'></img>,32,850,test,green_pentagon,go2,32,33,1,,,,,,,-1,-1,1400,0,ITI,poldrack-single-stim,307,409488,0.0-6.1-102.1,go_nogo_deval,464,,<div></div>,32,1400,test,,,,,,,,,,,,-1,-1,500,0,fixation,poldrack-single-stim,308,409989,0.0-6.1-103.1,go_nogo_deval,464,,<div class = centerbox><div class = fixation>+</div></div>,none,500,test,,,,,,,,,,,,395,32,850,0,stim,poldrack-single-stim,309,410841,0.0-6.1-104.1,go_nogo_deval,464,,<img class = center src='/static/experiments/go_nogo_deval/images/purple_triangle.png'></img>,32,850,test,purple_triangle,nogo1,-1,34,1,,,,,,,-1,-1,1400,0,ITI,poldrack-single-stim,310,412241,0.0-6.1-105.1,go_nogo_deval,464,,<div></div>,32,1400,test,,,,,,,,,,,,-1,-1,500,0,fixation,poldrack-single-stim,311,412742,0.0-6.1-106.1,go_nogo_deval,464,,<div class = centerbox><div class = fixation>+</div></div>,none,500,test,,,,,,,,,,,,421,32,850,0,stim,poldrack-single-stim,312,413594,0.0-6.1-107.1,go_nogo_deval,464,,<img class = center src='/static/experiments/go_nogo_deval/images/blue_rhombus.png'></img>,32,850,test,blue_rhombus,go1,32,35,1,,,,,,,-1,-1,1400,0,ITI,poldrack-single-stim,313,414996,0.0-6.1-108.1,go_nogo_deval,464,,<div></div>,32,1400,test,,,,,,,,,,,,-1,-1,500,0,fixation,poldrack-single-stim,314,415498,0.0-6.1-109.1,go_nogo_deval,464,,<div class = centerbox><div class = fixation>+</div></div>,none,500,test,,,,,,,,,,,,399,32,850,0,stim,poldrack-single-stim,315,416349,0.0-6.1-110.1,go_nogo_deval,464,,<img class = center src='/static/experiments/go_nogo_deval/images/green_pentagon.png'></img>,32,850,test,green_pentagon,go2,32,36,1,,,,,,,-1,-1,1400,0,ITI,poldrack-single-stim,316,417750,0.0-6.1-111.1,go_nogo_deval,464,,<div></div>,32,1400,test,,,,,,,,,,,,-1,-1,500,0,fixation,poldrack-single-stim,317,418252,0.0-6.1-112.1,go_nogo_deval,464,,<div class = centerbox><div class = fixation>+</div></div>,none,500,test,,,,,,,,,,,,-1,-1,850,0,stim,poldrack-single-stim,318,419103,0.0-6.1-113.1,go_nogo_deval,464,,<img class = center src='/static/experiments/go_nogo_deval/images/red_circle.png'></img>,32,850,test,red_circle,nogo2,-1,37,1,,,,,,,-1,-1,1400,0,ITI,poldrack-single-stim,319,420505,0.0-6.1-114.1,go_nogo_deval,464,,<div></div>,32,1400,test,,,,,,,,,,,,-1,-1,500,0,fixation,poldrack-single-stim,320,421007,0.0-6.1-115.1,go_nogo_deval,464,,<div class = centerbox><div class = fixation>+</div></div>,none,500,test,,,,,,,,,,,,-1,-1,850,0,stim,poldrack-single-stim,321,421858,0.0-6.1-116.1,go_nogo_deval,464,,<img class = center src='/static/experiments/go_nogo_deval/images/red_circle.png'></img>,32,850,test,red_circle,nogo2,-1,38,1,,,,,,,-1,-1,1400,0,ITI,poldrack-single-stim,322,423260,0.0-6.1-117.1,go_nogo_deval,464,,<div></div>,32,1400,test,,,,,,,,,,,,-1,-1,500,0,fixation,poldrack-single-stim,323,423762,0.0-6.1-118.1,go_nogo_deval,464,,<div class = centerbox><div class = fixation>+</div></div>,none,500,test,,,,,,,,,,,,472,32,850,0,stim,poldrack-single-stim,324,424613,0.0-6.1-119.1,go_nogo_deval,464,,<img class = center src='/static/experiments/go_nogo_deval/images/green_pentagon.png'></img>,32,850,test,green_pentagon,go2,32,39,1,,,,,,,-1,-1,1400,0,ITI,poldrack-single-stim,325,426014,0.0-6.1-120.1,go_nogo_deval,464,,<div></div>,32,1400,test,,,,,,,,,,,,-1,-1,500,0,fixation,poldrack-single-stim,326,426516,0.0-6.1-121.1,go_nogo_deval,464,,<div class = centerbox><div class = fixation>+</div></div>,none,500,test,,,,,,,,,,,,-1,-1,850,0,stim,poldrack-single-stim,327,427367,0.0-6.1-122.1,go_nogo_deval,464,,<img class = center src='/static/experiments/go_nogo_deval/images/red_circle.png'></img>,32,850,test,red_circle,nogo2,-1,40,1,,,,,,,-1,-1,1400,0,ITI,poldrack-single-stim,328,428769,0.0-6.1-123.1,go_nogo_deval,464,,<div></div>,32,1400,test,,,,,,,,,,,,-1,-1,500,0,fixation,poldrack-single-stim,329,429271,0.0-6.1-124.1,go_nogo_deval,464,,<div class = centerbox><div class = fixation>+</div></div>,none,500,test,,,,,,,,,,,,453,32,850,0,stim,poldrack-single-stim,330,430122,0.0-6.1-125.1,go_nogo_deval,464,,<img class = center src='/static/experiments/go_nogo_deval/images/green_pentagon.png'></img>,32,850,test,green_pentagon,go2,32,41,1,,,,,,,-1,-1,1400,0,ITI,poldrack-single-stim,331,431523,0.0-6.1-126.1,go_nogo_deval,464,,<div></div>,32,1400,test,,,,,,,,,,,,-1,-1,500,0,fixation,poldrack-single-stim,332,432024,0.0-6.1-127.1,go_nogo_deval,464,,<div class = centerbox><div class = fixation>+</div></div>,none,500,test,,,,,,,,,,,,366,32,850,0,stim,poldrack-single-stim,333,432876,0.0-6.1-128.1,go_nogo_deval,464,,<img class = center src='/static/experiments/go_nogo_deval/images/green_pentagon.png'></img>,32,850,test,green_pentagon,go2,32,42,1,,,,,,,-1,-1,1400,0,ITI,poldrack-single-stim,334,434278,0.0-6.1-129.1,go_nogo_deval,464,,<div></div>,32,1400,test,,,,,,,,,,,,-1,-1,500,0,fixation,poldrack-single-stim,335,434779,0.0-6.1-130.1,go_nogo_deval,464,,<div class = centerbox><div class = fixation>+</div></div>,none,500,test,,,,,,,,,,,,-1,-1,850,0,stim,poldrack-single-stim,336,435631,0.0-6.1-131.1,go_nogo_deval,464,,<img class = center src='/static/experiments/go_nogo_deval/images/purple_triangle.png'></img>,32,850,test,purple_triangle,nogo1,-1,43,1,,,,,,,-1,-1,1400,0,ITI,poldrack-single-stim,337,437032,0.0-6.1-132.1,go_nogo_deval,464,,<div></div>,32,1400,test,,,,,,,,,,,,-1,-1,500,0,fixation,poldrack-single-stim,338,437534,0.0-6.1-133.1,go_nogo_deval,464,,<div class = centerbox><div class = fixation>+</div></div>,none,500,test,,,,,,,,,,,,470,32,850,0,stim,poldrack-single-stim,339,438385,0.0-6.1-134.1,go_nogo_deval,464,,<img class = center src='/static/experiments/go_nogo_deval/images/blue_rhombus.png'></img>,32,850,test,blue_rhombus,go1,32,44,1,,,,,,,-1,-1,1400,0,ITI,poldrack-single-stim,340,439787,0.0-6.1-135.1,go_nogo_deval,464,,<div></div>,32,1400,test,,,,,,,,,,,,-1,-1,500,0,fixation,poldrack-single-stim,341,440289,0.0-6.1-136.1,go_nogo_deval,464,,<div class = centerbox><div class = fixation>+</div></div>,none,500,test,,,,,,,,,,,,483,32,850,0,stim,poldrack-single-stim,342,441141,0.0-6.1-137.1,go_nogo_deval,464,,<img class = center src='/static/experiments/go_nogo_deval/images/blue_rhombus.png'></img>,32,850,test,blue_rhombus,go1,32,45,1,,,,,,,-1,-1,1400,0,ITI,poldrack-single-stim,343,442543,0.0-6.1-138.1,go_nogo_deval,464,,<div></div>,32,1400,test,,,,,,,,,,,,-1,-1,500,0,fixation,poldrack-single-stim,344,443045,0.0-6.1-139.1,go_nogo_deval,464,,<div class = centerbox><div class = fixation>+</div></div>,none,500,test,,,,,,,,,,,,438,32,850,0,stim,poldrack-single-stim,345,443896,0.0-6.1-140.1,go_nogo_deval,464,,<img class = center src='/static/experiments/go_nogo_deval/images/green_pentagon.png'></img>,32,850,test,green_pentagon,go2,32,46,1,,,,,,,-1,-1,1400,0,ITI,poldrack-single-stim,346,445298,0.0-6.1-141.1,go_nogo_deval,464,,<div></div>,32,1400,test,,,,,,,,,,,,-1,-1,500,0,fixation,poldrack-single-stim,347,445799,0.0-6.1-142.1,go_nogo_deval,464,,<div class = centerbox><div class = fixation>+</div></div>,none,500,test,,,,,,,,,,,,417,32,850,0,stim,poldrack-single-stim,348,446650,0.0-6.1-143.1,go_nogo_deval,464,,<img class = center src='/static/experiments/go_nogo_deval/images/blue_rhombus.png'></img>,32,850,test,blue_rhombus,go1,32,47,1,,,,,,,-1,-1,1400,0,ITI,poldrack-single-stim,349,448052,0.0-6.1-144.1,go_nogo_deval,464,,<div></div>,32,1400,test,,,,,,,,,,,,20639,13,20639,0,practice-no-stop-feedback,poldrack-single-stim,350,468695,0.0-6.2-0.2,go_nogo_deval,464,,<div class = centerbox><p class = block-text><br>Please take this time to read your feedback and to take a short break! Press enter to continue</p><p class = block-text><strong>Average reaction time:  400 ms. Accuracy: 98%</strong></p></div>,13,20639,,,,,,,,,,,,,-1,-1,500,0,fixation,poldrack-single-stim,351,469196,0.0-6.2-1.2,go_nogo_deval,464,,<div class = centerbox><div class = fixation>+</div></div>,none,500,test,,,,,,,,,,,,432,32,850,0,stim,poldrack-single-stim,352,470048,0.0-6.2-2.2,go_nogo_deval,464,,<img class = center src='/static/experiments/go_nogo_deval/images/green_pentagon.png'></img>,32,850,test,green_pentagon,go2,32,0,2,,,,,,,-1,-1,1400,0,ITI,poldrack-single-stim,353,471449,0.0-6.2-3.2,go_nogo_deval,464,,<div></div>,32,1400,test,,,,,,,,,,,,-1,-1,500,0,fixation,poldrack-single-stim,354,471951,0.0-6.2-4.2,go_nogo_deval,464,,<div class = centerbox><div class = fixation>+</div></div>,none,500,test,,,,,,,,,,,,399,32,850,0,stim,poldrack-single-stim,355,472802,0.0-6.2-5.2,go_nogo_deval,464,,<img class = center src='/static/experiments/go_nogo_deval/images/blue_rhombus.png'></img>,32,850,test,blue_rhombus,go1,32,1,2,,,,,,,-1,-1,1400,0,ITI,poldrack-single-stim,356,474204,0.0-6.2-6.2,go_nogo_deval,464,,<div></div>,32,1400,test,,,,,,,,,,,,-1,-1,500,0,fixation,poldrack-single-stim,357,474705,0.0-6.2-7.2,go_nogo_deval,464,,<div class = centerbox><div class = fixation>+</div></div>,none,500,test,,,,,,,,,,,,-1,-1,850,0,stim,poldrack-single-stim,358,475557,0.0-6.2-8.2,go_nogo_deval,464,,<img class = center src='/static/experiments/go_nogo_deval/images/red_circle.png'></img>,32,850,test,red_circle,nogo2,-1,2,2,,,,,,,-1,-1,1400,0,ITI,poldrack-single-stim,359,476959,0.0-6.2-9.2,go_nogo_deval,464,,<div></div>,32,1400,test,,,,,,,,,,,,-1,-1,500,0,fixation,poldrack-single-stim,360,477460,0.0-6.2-10.2,go_nogo_deval,464,,<div class = centerbox><div class = fixation>+</div></div>,none,500,test,,,,,,,,,,,,368,32,850,0,stim,poldrack-single-stim,361,478312,0.0-6.2-11.2,go_nogo_deval,464,,<img class = center src='/static/experiments/go_nogo_deval/images/green_pentagon.png'></img>,32,850,test,green_pentagon,go2,32,3,2,,,,,,,-1,-1,1400,0,ITI,poldrack-single-stim,362,479714,0.0-6.2-12.2,go_nogo_deval,464,,<div></div>,32,1400,test,,,,,,,,,,,,-1,-1,500,0,fixation,poldrack-single-stim,363,480216,0.0-6.2-13.2,go_nogo_deval,464,,<div class = centerbox><div class = fixation>+</div></div>,none,500,test,,,,,,,,,,,,-1,-1,850,0,stim,poldrack-single-stim,364,481068,0.0-6.2-14.2,go_nogo_deval,464,,<img class = center src='/static/experiments/go_nogo_deval/images/red_circle.png'></img>,32,850,test,red_circle,nogo2,-1,4,2,,,,,,,-1,-1,1400,0,ITI,poldrack-single-stim,365,482470,0.0-6.2-15.2,go_nogo_deval,464,,<div></div>,32,1400,test,,,,,,,,,,,,-1,-1,500,0,fixation,poldrack-single-stim,366,482971,0.0-6.2-16.2,go_nogo_deval,464,,<div class = centerbox><div class = fixation>+</div></div>,none,500,test,,,,,,,,,,,,349,32,850,0,stim,poldrack-single-stim,367,483822,0.0-6.2-17.2,go_nogo_deval,464,,<img class = center src='/static/experiments/go_nogo_deval/images/green_pentagon.png'></img>,32,850,test,green_pentagon,go2,32,5,2,,,,,,,-1,-1,1400,0,ITI,poldrack-single-stim,368,485224,0.0-6.2-18.2,go_nogo_deval,464,,<div></div>,32,1400,test,,,,,,,,,,,,-1,-1,500,0,fixation,poldrack-single-stim,369,485726,0.0-6.2-19.2,go_nogo_deval,464,,<div class = centerbox><div class = fixation>+</div></div>,none,500,test,,,,,,,,,,,,-1,-1,850,0,stim,poldrack-single-stim,370,486578,0.0-6.2-20.2,go_nogo_deval,464,,<img class = center src='/static/experiments/go_nogo_deval/images/red_circle.png'></img>,32,850,test,red_circle,nogo2,-1,6,2,,,,,,,-1,-1,1400,0,ITI,poldrack-single-stim,371,487979,0.0-6.2-21.2,go_nogo_deval,464,,<div></div>,32,1400,test,,,,,,,,,,,,-1,-1,500,0,fixation,poldrack-single-stim,372,488481,0.0-6.2-22.2,go_nogo_deval,464,,<div class = centerbox><div class = fixation>+</div></div>,none,500,test,,,,,,,,,,,,373,32,850,0,stim,poldrack-single-stim,373,489332,0.0-6.2-23.2,go_nogo_deval,464,,<img class = center src='/static/experiments/go_nogo_deval/images/blue_rhombus.png'></img>,32,850,test,blue_rhombus,go1,32,7,2,,,,,,,-1,-1,1400,0,ITI,poldrack-single-stim,374,490734,0.0-6.2-24.2,go_nogo_deval,464,,<div></div>,32,1400,test,,,,,,,,,,,,-1,-1,500,0,fixation,poldrack-single-stim,375,491235,0.0-6.2-25.2,go_nogo_deval,464,,<div class = centerbox><div class = fixation>+</div></div>,none,500,test,,,,,,,,,,,,-1,-1,850,0,stim,poldrack-single-stim,376,492086,0.0-6.2-26.2,go_nogo_deval,464,,<img class = center src='/static/experiments/go_nogo_deval/images/purple_triangle.png'></img>,32,850,test,purple_triangle,nogo1,-1,8,2,,,,,,,-1,-1,1400,0,ITI,poldrack-single-stim,377,493488,0.0-6.2-27.2,go_nogo_deval,464,,<div></div>,32,1400,test,,,,,,,,,,,,-1,-1,500,0,fixation,poldrack-single-stim,378,493990,0.0-6.2-28.2,go_nogo_deval,464,,<div class = centerbox><div class = fixation>+</div></div>,none,500,test,,,,,,,,,,,,366,32,850,0,stim,poldrack-single-stim,379,494841,0.0-6.2-29.2,go_nogo_deval,464,,<img class = center src='/static/experiments/go_nogo_deval/images/blue_rhombus.png'></img>,32,850,test,blue_rhombus,go1,32,9,2,,,,,,,-1,-1,1400,0,ITI,poldrack-single-stim,380,496243,0.0-6.2-30.2,go_nogo_deval,464,,<div></div>,32,1400,test,,,,,,,,,,,,-1,-1,500,0,fixation,poldrack-single-stim,381,496745,0.0-6.2-31.2,go_nogo_deval,464,,<div class = centerbox><div class = fixation>+</div></div>,none,500,test,,,,,,,,,,,,389,32,850,0,stim,poldrack-single-stim,382,497596,0.0-6.2-32.2,go_nogo_deval,464,,<img class = center src='/static/experiments/go_nogo_deval/images/green_pentagon.png'></img>,32,850,test,green_pentagon,go2,32,10,2,,,,,,,-1,-1,1400,0,ITI,poldrack-single-stim,383,498997,0.0-6.2-33.2,go_nogo_deval,464,,<div></div>,32,1400,test,,,,,,,,,,,,-1,-1,500,0,fixation,poldrack-single-stim,384,499499,0.0-6.2-34.2,go_nogo_deval,464,,<div class = centerbox><div class = fixation>+</div></div>,none,500,test,,,,,,,,,,,,470,32,850,0,stim,poldrack-single-stim,385,500350,0.0-6.2-35.2,go_nogo_deval,464,,<img class = center src='/static/experiments/go_nogo_deval/images/green_pentagon.png'></img>,32,850,test,green_pentagon,go2,32,11,2,,,,,,,-1,-1,1400,0,ITI,poldrack-single-stim,386,501752,0.0-6.2-36.2,go_nogo_deval,464,,<div></div>,32,1400,test,,,,,,,,,,,,-1,-1,500,0,fixation,poldrack-single-stim,387,502253,0.0-6.2-37.2,go_nogo_deval,464,,<div class = centerbox><div class = fixation>+</div></div>,none,500,test,,,,,,,,,,,,-1,-1,850,0,stim,poldrack-single-stim,388,503105,0.0-6.2-38.2,go_nogo_deval,464,,<img class = center src='/static/experiments/go_nogo_deval/images/red_circle.png'></img>,32,850,test,red_circle,nogo2,-1,12,2,,,,,,,-1,-1,1400,0,ITI,poldrack-single-stim,389,504506,0.0-6.2-39.2,go_nogo_deval,464,,<div></div>,32,1400,test,,,,,,,,,,,,-1,-1,500,0,fixation,poldrack-single-stim,390,505008,0.0-6.2-40.2,go_nogo_deval,464,,<div class = centerbox><div class = fixation>+</div></div>,none,500,test,,,,,,,,,,,,486,32,850,0,stim,poldrack-single-stim,391,505859,0.0-6.2-41.2,go_nogo_deval,464,,<img class = center src='/static/experiments/go_nogo_deval/images/green_pentagon.png'></img>,32,850,test,green_pentagon,go2,32,13,2,,,,,,,-1,-1,1400,0,ITI,poldrack-single-stim,392,507260,0.0-6.2-42.2,go_nogo_deval,464,,<div></div>,32,1400,test,,,,,,,,,,,,-1,-1,500,0,fixation,poldrack-single-stim,393,507763,0.0-6.2-43.2,go_nogo_deval,464,,<div class = centerbox><div class = fixation>+</div></div>,none,500,test,,,,,,,,,,,,384,32,850,0,stim,poldrack-single-stim,394,508616,0.0-6.2-44.2,go_nogo_deval,464,,<img class = center src='/static/experiments/go_nogo_deval/images/green_pentagon.png'></img>,32,850,test,green_pentagon,go2,32,14,2,,,,,,,-1,-1,1400,0,ITI,poldrack-single-stim,395,510018,0.0-6.2-45.2,go_nogo_deval,464,,<div></div>,32,1400,test,,,,,,,,,,,,-1,-1,500,0,fixation,poldrack-single-stim,396,510520,0.0-6.2-46.2,go_nogo_deval,464,,<div class = centerbox><div class = fixation>+</div></div>,none,500,test,,,,,,,,,,,,474,32,850,0,stim,poldrack-single-stim,397,511371,0.0-6.2-47.2,go_nogo_deval,464,,<img class = center src='/static/experiments/go_nogo_deval/images/blue_rhombus.png'></img>,32,850,test,blue_rhombus,go1,32,15,2,,,,,,,-1,-1,1400,0,ITI,poldrack-single-stim,398,512772,0.0-6.2-48.2,go_nogo_deval,464,,<div></div>,32,1400,test,,,,,,,,,,,,-1,-1,500,0,fixation,poldrack-single-stim,399,513274,0.0-6.2-49.2,go_nogo_deval,464,,<div class = centerbox><div class = fixation>+</div></div>,none,500,test,,,,,,,,,,,,342,32,850,0,stim,poldrack-single-stim,400,514125,0.0-6.2-50.2,go_nogo_deval,464,,<img class = center src='/static/experiments/go_nogo_deval/images/blue_rhombus.png'></img>,32,850,test,blue_rhombus,go1,32,16,2,,,,,,,-1,-1,1400,0,ITI,poldrack-single-stim,401,515526,0.0-6.2-51.2,go_nogo_deval,464,,<div></div>,32,1400,test,,,,,,,,,,,,-1,-1,500,0,fixation,poldrack-single-stim,402,516029,0.0-6.2-52.2,go_nogo_deval,464,,<div class = centerbox><div class = fixation>+</div></div>,none,500,test,,,,,,,,,,,,-1,-1,850,0,stim,poldrack-single-stim,403,516881,0.0-6.2-53.2,go_nogo_deval,464,,<img class = center src='/static/experiments/go_nogo_deval/images/purple_triangle.png'></img>,32,850,test,purple_triangle,nogo1,-1,17,2,,,,,,,-1,-1,1400,0,ITI,poldrack-single-stim,404,518281,0.0-6.2-54.2,go_nogo_deval,464,,<div></div>,32,1400,test,,,,,,,,,,,,-1,-1,500,0,fixation,poldrack-single-stim,405,518783,0.0-6.2-55.2,go_nogo_deval,464,,<div class = centerbox><div class = fixation>+</div></div>,none,500,test,,,,,,,,,,,,334,32,850,0,stim,poldrack-single-stim,406,519634,0.0-6.2-56.2,go_nogo_deval,464,,<img class = center src='/static/experiments/go_nogo_deval/images/green_pentagon.png'></img>,32,850,test,green_pentagon,go2,32,18,2,,,,,,,-1,-1,1400,0,ITI,poldrack-single-stim,407,521036,0.0-6.2-57.2,go_nogo_deval,464,,<div></div>,32,1400,test,,,,,,,,,,,,-1,-1,500,0,fixation,poldrack-single-stim,408,521537,0.0-6.2-58.2,go_nogo_deval,464,,<div class = centerbox><div class = fixation>+</div></div>,none,500,test,,,,,,,,,,,,-1,-1,850,0,stim,poldrack-single-stim,409,522389,0.0-6.2-59.2,go_nogo_deval,464,,<img class = center src='/static/experiments/go_nogo_deval/images/red_circle.png'></img>,32,850,test,red_circle,nogo2,-1,19,2,,,,,,,-1,-1,1400,0,ITI,poldrack-single-stim,410,523791,0.0-6.2-60.2,go_nogo_deval,464,,<div></div>,32,1400,test,,,,,,,,,,,,-1,-1,500,0,fixation,poldrack-single-stim,411,524292,0.0-6.2-61.2,go_nogo_deval,464,,<div class = centerbox><div class = fixation>+</div></div>,none,500,test,,,,,,,,,,,,438,32,850,0,stim,poldrack-single-stim,412,525143,0.0-6.2-62.2,go_nogo_deval,464,,<img class = center src='/static/experiments/go_nogo_deval/images/blue_rhombus.png'></img>,32,850,test,blue_rhombus,go1,32,20,2,,,,,,,-1,-1,1400,0,ITI,poldrack-single-stim,413,526545,0.0-6.2-63.2,go_nogo_deval,464,,<div></div>,32,1400,test,,,,,,,,,,,,-1,-1,500,0,fixation,poldrack-single-stim,414,527046,0.0-6.2-64.2,go_nogo_deval,464,,<div class = centerbox><div class = fixation>+</div></div>,none,500,test,,,,,,,,,,,,362,32,850,0,stim,poldrack-single-stim,415,527897,0.0-6.2-65.2,go_nogo_deval,464,,<img class = center src='/static/experiments/go_nogo_deval/images/green_pentagon.png'></img>,32,850,test,green_pentagon,go2,32,21,2,,,,,,,-1,-1,1400,0,ITI,poldrack-single-stim,416,529298,0.0-6.2-66.2,go_nogo_deval,464,,<div></div>,32,1400,test,,,,,,,,,,,,-1,-1,500,0,fixation,poldrack-single-stim,417,529799,0.0-6.2-67.2,go_nogo_deval,464,,<div class = centerbox><div class = fixation>+</div></div>,none,500,test,,,,,,,,,,,,365,32,850,0,stim,poldrack-single-stim,418,530650,0.0-6.2-68.2,go_nogo_deval,464,,<img class = center src='/static/experiments/go_nogo_deval/images/green_pentagon.png'></img>,32,850,test,green_pentagon,go2,32,22,2,,,,,,,-1,-1,1400,0,ITI,poldrack-single-stim,419,532052,0.0-6.2-69.2,go_nogo_deval,464,,<div></div>,32,1400,test,,,,,,,,,,,,-1,-1,500,0,fixation,poldrack-single-stim,420,532554,0.0-6.2-70.2,go_nogo_deval,464,,<div class = centerbox><div class = fixation>+</div></div>,none,500,test,,,,,,,,,,,,366,32,850,0,stim,poldrack-single-stim,421,533405,0.0-6.2-71.2,go_nogo_deval,464,,<img class = center src='/static/experiments/go_nogo_deval/images/blue_rhombus.png'></img>,32,850,test,blue_rhombus,go1,32,23,2,,,,,,,-1,-1,1400,0,ITI,poldrack-single-stim,422,534807,0.0-6.2-72.2,go_nogo_deval,464,,<div></div>,32,1400,test,,,,,,,,,,,,-1,-1,500,0,fixation,poldrack-single-stim,423,535308,0.0-6.2-73.2,go_nogo_deval,464,,<div class = centerbox><div class = fixation>+</div></div>,none,500,test,,,,,,,,,,,,346,32,850,0,stim,poldrack-single-stim,424,536160,0.0-6.2-74.2,go_nogo_deval,464,,<img class = center src='/static/experiments/go_nogo_deval/images/blue_rhombus.png'></img>,32,850,test,blue_rhombus,go1,32,24,2,,,,,,,-1,-1,1400,0,ITI,poldrack-single-stim,425,537561,0.0-6.2-75.2,go_nogo_deval,464,,<div></div>,32,1400,test,,,,,,,,,,,,-1,-1,500,0,fixation,poldrack-single-stim,426,538063,0.0-6.2-76.2,go_nogo_deval,464,,<div class = centerbox><div class = fixation>+</div></div>,none,500,test,,,,,,,,,,,,370,32,850,0,stim,poldrack-single-stim,427,538914,0.0-6.2-77.2,go_nogo_deval,464,,<img class = center src='/static/experiments/go_nogo_deval/images/blue_rhombus.png'></img>,32,850,test,blue_rhombus,go1,32,25,2,,,,,,,-1,-1,1400,0,ITI,poldrack-single-stim,428,540315,0.0-6.2-78.2,go_nogo_deval,464,,<div></div>,32,1400,test,,,,,,,,,,,,-1,-1,500,0,fixation,poldrack-single-stim,429,540817,0.0-6.2-79.2,go_nogo_deval,464,,<div class = centerbox><div class = fixation>+</div></div>,none,500,test,,,,,,,,,,,,-1,-1,850,0,stim,poldrack-single-stim,430,541668,0.0-6.2-80.2,go_nogo_deval,464,,<img class = center src='/static/experiments/go_nogo_deval/images/red_circle.png'></img>,32,850,test,red_circle,nogo2,-1,26,2,,,,,,,-1,-1,1400,0,ITI,poldrack-single-stim,431,543070,0.0-6.2-81.2,go_nogo_deval,464,,<div></div>,32,1400,test,,,,,,,,,,,,-1,-1,500,0,fixation,poldrack-single-stim,432,543572,0.0-6.2-82.2,go_nogo_deval,464,,<div class = centerbox><div class = fixation>+</div></div>,none,500,test,,,,,,,,,,,,-1,-1,850,0,stim,poldrack-single-stim,433,544423,0.0-6.2-83.2,go_nogo_deval,464,,<img class = center src='/static/experiments/go_nogo_deval/images/purple_triangle.png'></img>,32,850,test,purple_triangle,nogo1,-1,27,2,,,,,,,-1,-1,1400,0,ITI,poldrack-single-stim,434,545824,0.0-6.2-84.2,go_nogo_deval,464,,<div></div>,32,1400,test,,,,,,,,,,,,-1,-1,500,0,fixation,poldrack-single-stim,435,546326,0.0-6.2-85.2,go_nogo_deval,464,,<div class = centerbox><div class = fixation>+</div></div>,none,500,test,,,,,,,,,,,,343,32,850,0,stim,poldrack-single-stim,436,547178,0.0-6.2-86.2,go_nogo_deval,464,,<img class = center src='/static/experiments/go_nogo_deval/images/blue_rhombus.png'></img>,32,850,test,blue_rhombus,go1,32,28,2,,,,,,,-1,-1,1400,0,ITI,poldrack-single-stim,437,548579,0.0-6.2-87.2,go_nogo_deval,464,,<div></div>,32,1400,test,,,,,,,,,,,,-1,-1,500,0,fixation,poldrack-single-stim,438,549080,0.0-6.2-88.2,go_nogo_deval,464,,<div class = centerbox><div class = fixation>+</div></div>,none,500,test,,,,,,,,,,,,389,32,850,0,stim,poldrack-single-stim,439,549932,0.0-6.2-89.2,go_nogo_deval,464,,<img class = center src='/static/experiments/go_nogo_deval/images/green_pentagon.png'></img>,32,850,test,green_pentagon,go2,32,29,2,,,,,,,-1,-1,1400,0,ITI,poldrack-single-stim,440,551333,0.0-6.2-90.2,go_nogo_deval,464,,<div></div>,32,1400,test,,,,,,,,,,,,-1,-1,500,0,fixation,poldrack-single-stim,441,551834,0.0-6.2-91.2,go_nogo_deval,464,,<div class = centerbox><div class = fixation>+</div></div>,none,500,test,,,,,,,,,,,,346,32,850,0,stim,poldrack-single-stim,442,552686,0.0-6.2-92.2,go_nogo_deval,464,,<img class = center src='/static/experiments/go_nogo_deval/images/green_pentagon.png'></img>,32,850,test,green_pentagon,go2,32,30,2,,,,,,,-1,-1,1400,0,ITI,poldrack-single-stim,443,554088,0.0-6.2-93.2,go_nogo_deval,464,,<div></div>,32,1400,test,,,,,,,,,,,,-1,-1,500,0,fixation,poldrack-single-stim,444,554589,0.0-6.2-94.2,go_nogo_deval,464,,<div class = centerbox><div class = fixation>+</div></div>,none,500,test,,,,,,,,,,,,348,32,850,0,stim,poldrack-single-stim,445,555441,0.0-6.2-95.2,go_nogo_deval,464,,<img class = center src='/static/experiments/go_nogo_deval/images/green_pentagon.png'></img>,32,850,test,green_pentagon,go2,32,31,2,,,,,,,-1,-1,1400,0,ITI,poldrack-single-stim,446,556841,0.0-6.2-96.2,go_nogo_deval,464,,<div></div>,32,1400,test,,,,,,,,,,,,-1,-1,500,0,fixation,poldrack-single-stim,447,557343,0.0-6.2-97.2,go_nogo_deval,464,,<div class = centerbox><div class = fixation>+</div></div>,none,500,test,,,,,,,,,,,,430,32,850,0,stim,poldrack-single-stim,448,558194,0.0-6.2-98.2,go_nogo_deval,464,,<img class = center src='/static/experiments/go_nogo_deval/images/blue_rhombus.png'></img>,32,850,test,blue_rhombus,go1,32,32,2,,,,,,,-1,-1,1400,0,ITI,poldrack-single-stim,449,559596,0.0-6.2-99.2,go_nogo_deval,464,,<div></div>,32,1400,test,,,,,,,,,,,,-1,-1,500,0,fixation,poldrack-single-stim,450,560098,0.0-6.2-100.2,go_nogo_deval,464,,<div class = centerbox><div class = fixation>+</div></div>,none,500,test,,,,,,,,,,,,-1,-1,850,0,stim,poldrack-single-stim,451,560949,0.0-6.2-101.2,go_nogo_deval,464,,<img class = center src='/static/experiments/go_nogo_deval/images/purple_triangle.png'></img>,32,850,test,purple_triangle,nogo1,-1,33,2,,,,,,,-1,-1,1400,0,ITI,poldrack-single-stim,452,562350,0.0-6.2-102.2,go_nogo_deval,464,,<div></div>,32,1400,test,,,,,,,,,,,,-1,-1,500,0,fixation,poldrack-single-stim,453,562852,0.0-6.2-103.2,go_nogo_deval,464,,<div class = centerbox><div class = fixation>+</div></div>,none,500,test,,,,,,,,,,,,-1,-1,850,0,stim,poldrack-single-stim,454,563703,0.0-6.2-104.2,go_nogo_deval,464,,<img class = center src='/static/experiments/go_nogo_deval/images/purple_triangle.png'></img>,32,850,test,purple_triangle,nogo1,-1,34,2,,,,,,,-1,-1,1400,0,ITI,poldrack-single-stim,455,565104,0.0-6.2-105.2,go_nogo_deval,464,,<div></div>,32,1400,test,,,,,,,,,,,,-1,-1,500,0,fixation,poldrack-single-stim,456,565606,0.0-6.2-106.2,go_nogo_deval,464,,<div class = centerbox><div class = fixation>+</div></div>,none,500,test,,,,,,,,,,,,-1,-1,850,0,stim,poldrack-single-stim,457,566458,0.0-6.2-107.2,go_nogo_deval,464,,<img class = center src='/static/experiments/go_nogo_deval/images/red_circle.png'></img>,32,850,test,red_circle,nogo2,-1,35,2,,,,,,,-1,-1,1400,0,ITI,poldrack-single-stim,458,567859,0.0-6.2-108.2,go_nogo_deval,464,,<div></div>,32,1400,test,,,,,,,,,,,,-1,-1,500,0,fixation,poldrack-single-stim,459,568359,0.0-6.2-109.2,go_nogo_deval,464,,<div class = centerbox><div class = fixation>+</div></div>,none,500,test,,,,,,,,,,,,-1,-1,850,0,stim,poldrack-single-stim,460,569211,0.0-6.2-110.2,go_nogo_deval,464,,<img class = center src='/static/experiments/go_nogo_deval/images/purple_triangle.png'></img>,32,850,test,purple_triangle,nogo1,-1,36,2,,,,,,,-1,-1,1400,0,ITI,poldrack-single-stim,461,570613,0.0-6.2-111.2,go_nogo_deval,464,,<div></div>,32,1400,test,,,,,,,,,,,,-1,-1,500,0,fixation,poldrack-single-stim,462,571115,0.0-6.2-112.2,go_nogo_deval,464,,<div class = centerbox><div class = fixation>+</div></div>,none,500,test,,,,,,,,,,,,461,32,850,0,stim,poldrack-single-stim,463,571967,0.0-6.2-113.2,go_nogo_deval,464,,<img class = center src='/static/experiments/go_nogo_deval/images/blue_rhombus.png'></img>,32,850,test,blue_rhombus,go1,32,37,2,,,,,,,-1,-1,1400,0,ITI,poldrack-single-stim,464,573367,0.0-6.2-114.2,go_nogo_deval,464,,<div></div>,32,1400,test,,,,,,,,,,,,-1,-1,500,0,fixation,poldrack-single-stim,465,573869,0.0-6.2-115.2,go_nogo_deval,464,,<div class = centerbox><div class = fixation>+</div></div>,none,500,test,,,,,,,,,,,,-1,-1,850,0,stim,poldrack-single-stim,466,574720,0.0-6.2-116.2,go_nogo_deval,464,,<img class = center src='/static/experiments/go_nogo_deval/images/purple_triangle.png'></img>,32,850,test,purple_triangle,nogo1,-1,38,2,,,,,,,-1,-1,1400,0,ITI,poldrack-single-stim,467,576122,0.0-6.2-117.2,go_nogo_deval,464,,<div></div>,32,1400,test,,,,,,,,,,,,-1,-1,500,0,fixation,poldrack-single-stim,468,576623,0.0-6.2-118.2,go_nogo_deval,464,,<div class = centerbox><div class = fixation>+</div></div>,none,500,test,,,,,,,,,,,,453,32,850,0,stim,poldrack-single-stim,469,577474,0.0-6.2-119.2,go_nogo_deval,464,,<img class = center src='/static/experiments/go_nogo_deval/images/blue_rhombus.png'></img>,32,850,test,blue_rhombus,go1,32,39,2,,,,,,,-1,-1,1400,0,ITI,poldrack-single-stim,470,578875,0.0-6.2-120.2,go_nogo_deval,464,,<div></div>,32,1400,test,,,,,,,,,,,,-1,-1,500,0,fixation,poldrack-single-stim,471,579377,0.0-6.2-121.2,go_nogo_deval,464,,<div class = centerbox><div class = fixation>+</div></div>,none,500,test,,,,,,,,,,,,423,32,850,0,stim,poldrack-single-stim,472,580229,0.0-6.2-122.2,go_nogo_deval,464,,<img class = center src='/static/experiments/go_nogo_deval/images/blue_rhombus.png'></img>,32,850,test,blue_rhombus,go1,32,40,2,,,,,,,-1,-1,1400,0,ITI,poldrack-single-stim,473,581630,0.0-6.2-123.2,go_nogo_deval,464,,<div></div>,32,1400,test,,,,,,,,,,,,-1,-1,500,0,fixation,poldrack-single-stim,474,582132,0.0-6.2-124.2,go_nogo_deval,464,,<div class = centerbox><div class = fixation>+</div></div>,none,500,test,,,,,,,,,,,,391,32,850,0,stim,poldrack-single-stim,475,582984,0.0-6.2-125.2,go_nogo_deval,464,,<img class = center src='/static/experiments/go_nogo_deval/images/blue_rhombus.png'></img>,32,850,test,blue_rhombus,go1,32,41,2,,,,,,,-1,-1,1400,0,ITI,poldrack-single-stim,476,584385,0.0-6.2-126.2,go_nogo_deval,464,,<div></div>,32,1400,test,,,,,,,,,,,,-1,-1,500,0,fixation,poldrack-single-stim,477,584887,0.0-6.2-127.2,go_nogo_deval,464,,<div class = centerbox><div class = fixation>+</div></div>,none,500,test,,,,,,,,,,,,425,32,850,0,stim,poldrack-single-stim,478,585739,0.0-6.2-128.2,go_nogo_deval,464,,<img class = center src='/static/experiments/go_nogo_deval/images/green_pentagon.png'></img>,32,850,test,green_pentagon,go2,32,42,2,,,,,,,-1,-1,1400,0,ITI,poldrack-single-stim,479,587140,0.0-6.2-129.2,go_nogo_deval,464,,<div></div>,32,1400,test,,,,,,,,,,,,-1,-1,500,0,fixation,poldrack-single-stim,480,587641,0.0-6.2-130.2,go_nogo_deval,464,,<div class = centerbox><div class = fixation>+</div></div>,none,500,test,,,,,,,,,,,,370,32,850,0,stim,poldrack-single-stim,481,588493,0.0-6.2-131.2,go_nogo_deval,464,,<img class = center src='/static/experiments/go_nogo_deval/images/green_pentagon.png'></img>,32,850,test,green_pentagon,go2,32,43,2,,,,,,,-1,-1,1400,0,ITI,poldrack-single-stim,482,589895,0.0-6.2-132.2,go_nogo_deval,464,,<div></div>,32,1400,test,,,,,,,,,,,,-1,-1,500,0,fixation,poldrack-single-stim,483,590396,0.0-6.2-133.2,go_nogo_deval,464,,<div class = centerbox><div class = fixation>+</div></div>,none,500,test,,,,,,,,,,,,384,32,850,0,stim,poldrack-single-stim,484,591248,0.0-6.2-134.2,go_nogo_deval,464,,<img class = center src='/static/experiments/go_nogo_deval/images/green_pentagon.png'></img>,32,850,test,green_pentagon,go2,32,44,2,,,,,,,-1,-1,1400,0,ITI,poldrack-single-stim,485,592650,0.0-6.2-135.2,go_nogo_deval,464,,<div></div>,32,1400,test,,,,,,,,,,,,-1,-1,500,0,fixation,poldrack-single-stim,486,593151,0.0-6.2-136.2,go_nogo_deval,464,,<div class = centerbox><div class = fixation>+</div></div>,none,500,test,,,,,,,,,,,,418,32,850,0,stim,poldrack-single-stim,487,594003,0.0-6.2-137.2,go_nogo_deval,464,,<img class = center src='/static/experiments/go_nogo_deval/images/blue_rhombus.png'></img>,32,850,test,blue_rhombus,go1,32,45,2,,,,,,,-1,-1,1400,0,ITI,poldrack-single-stim,488,595405,0.0-6.2-138.2,go_nogo_deval,464,,<div></div>,32,1400,test,,,,,,,,,,,,-1,-1,500,0,fixation,poldrack-single-stim,489,595907,0.0-6.2-139.2,go_nogo_deval,464,,<div class = centerbox><div class = fixation>+</div></div>,none,500,test,,,,,,,,,,,,-1,-1,850,0,stim,poldrack-single-stim,490,596758,0.0-6.2-140.2,go_nogo_deval,464,,<img class = center src='/static/experiments/go_nogo_deval/images/purple_triangle.png'></img>,32,850,test,purple_triangle,nogo1,-1,46,2,,,,,,,-1,-1,1400,0,ITI,poldrack-single-stim,491,598159,0.0-6.2-141.2,go_nogo_deval,464,,<div></div>,32,1400,test,,,,,,,,,,,,-1,-1,500,0,fixation,poldrack-single-stim,492,598661,0.0-6.2-142.2,go_nogo_deval,464,,<div class = centerbox><div class = fixation>+</div></div>,none,500,test,,,,,,,,,,,,-1,-1,850,0,stim,poldrack-single-stim,493,599512,0.0-6.2-143.2,go_nogo_deval,464,,<img class = center src='/static/experiments/go_nogo_deval/images/red_circle.png'></img>,32,850,test,red_circle,nogo2,-1,47,2,,,,,,,-1,-1,1400,0,ITI,poldrack-single-stim,494,600914,0.0-6.2-144.2,go_nogo_deval,464,,<div></div>,32,1400,test,,,,,,,,,,,,15366,13,15366,0,practice-no-stop-feedback,poldrack-single-stim,495,616285,0.0-6.3-0.3,go_nogo_deval,464,,<div class = centerbox><p class = block-text><br>Please take this time to read your feedback and to take a short break! Press enter to continue</p><p class = block-text><strong>Average reaction time:  394 ms. Accuracy: 100%</strong></p></div>,13,15366,,,,,,,,,,,,,-1,-1,500,0,fixation,poldrack-single-stim,496,616786,0.0-6.3-1.3,go_nogo_deval,464,,<div class = centerbox><div class = fixation>+</div></div>,none,500,test,,,,,,,,,,,,-1,-1,850,0,stim,poldrack-single-stim,497,617638,0.0-6.3-2.3,go_nogo_deval,464,,<img class = center src='/static/experiments/go_nogo_deval/images/purple_triangle.png'></img>,32,850,test,purple_triangle,nogo1,-1,0,3,,,,,,,-1,-1,1400,0,ITI,poldrack-single-stim,498,619039,0.0-6.3-3.3,go_nogo_deval,464,,<div></div>,32,1400,test,,,,,,,,,,,,-1,-1,500,0,fixation,poldrack-single-stim,499,619541,0.0-6.3-4.3,go_nogo_deval,464,,<div class = centerbox><div class = fixation>+</div></div>,none,500,test,,,,,,,,,,,,500,32,850,0,stim,poldrack-single-stim,500,620392,0.0-6.3-5.3,go_nogo_deval,464,,<img class = center src='/static/experiments/go_nogo_deval/images/green_pentagon.png'></img>,32,850,test,green_pentagon,go2,32,1,3,,,,,,,-1,-1,1400,0,ITI,poldrack-single-stim,501,621793,0.0-6.3-6.3,go_nogo_deval,464,,<div></div>,32,1400,test,,,,,,,,,,,,-1,-1,500,0,fixation,poldrack-single-stim,502,622295,0.0-6.3-7.3,go_nogo_deval,464,,<div class = centerbox><div class = fixation>+</div></div>,none,500,test,,,,,,,,,,,,-1,-1,850,0,stim,poldrack-single-stim,503,623147,0.0-6.3-8.3,go_nogo_deval,464,,<img class = center src='/static/experiments/go_nogo_deval/images/purple_triangle.png'></img>,32,850,test,purple_triangle,nogo1,-1,2,3,,,,,,,-1,-1,1400,0,ITI,poldrack-single-stim,504,624548,0.0-6.3-9.3,go_nogo_deval,464,,<div></div>,32,1400,test,,,,,,,,,,,,-1,-1,500,0,fixation,poldrack-single-stim,505,625049,0.0-6.3-10.3,go_nogo_deval,464,,<div class = centerbox><div class = fixation>+</div></div>,none,500,test,,,,,,,,,,,,-1,-1,850,0,stim,poldrack-single-stim,506,625901,0.0-6.3-11.3,go_nogo_deval,464,,<img class = center src='/static/experiments/go_nogo_deval/images/purple_triangle.png'></img>,32,850,test,purple_triangle,nogo1,-1,3,3,,,,,,,-1,-1,1400,0,ITI,poldrack-single-stim,507,627303,0.0-6.3-12.3,go_nogo_deval,464,,<div></div>,32,1400,test,,,,,,,,,,,,-1,-1,500,0,fixation,poldrack-single-stim,508,627804,0.0-6.3-13.3,go_nogo_deval,464,,<div class = centerbox><div class = fixation>+</div></div>,none,500,test,,,,,,,,,,,,439,32,850,0,stim,poldrack-single-stim,509,628655,0.0-6.3-14.3,go_nogo_deval,464,,<img class = center src='/static/experiments/go_nogo_deval/images/blue_rhombus.png'></img>,32,850,test,blue_rhombus,go1,32,4,3,,,,,,,-1,-1,1400,0,ITI,poldrack-single-stim,510,630056,0.0-6.3-15.3,go_nogo_deval,464,,<div></div>,32,1400,test,,,,,,,,,,,,-1,-1,500,0,fixation,poldrack-single-stim,511,630557,0.0-6.3-16.3,go_nogo_deval,464,,<div class = centerbox><div class = fixation>+</div></div>,none,500,test,,,,,,,,,,,,-1,-1,850,0,stim,poldrack-single-stim,512,631409,0.0-6.3-17.3,go_nogo_deval,464,,<img class = center src='/static/experiments/go_nogo_deval/images/red_circle.png'></img>,32,850,test,red_circle,nogo2,-1,5,3,,,,,,,-1,-1,1400,0,ITI,poldrack-single-stim,513,632810,0.0-6.3-18.3,go_nogo_deval,464,,<div></div>,32,1400,test,,,,,,,,,,,,-1,-1,500,0,fixation,poldrack-single-stim,514,633312,0.0-6.3-19.3,go_nogo_deval,464,,<div class = centerbox><div class = fixation>+</div></div>,none,500,test,,,,,,,,,,,,-1,-1,850,0,stim,poldrack-single-stim,515,634165,0.0-6.3-20.3,go_nogo_deval,464,,<img class = center src='/static/experiments/go_nogo_deval/images/red_circle.png'></img>,32,850,test,red_circle,nogo2,-1,6,3,,,,,,,-1,-1,1400,0,ITI,poldrack-single-stim,516,635567,0.0-6.3-21.3,go_nogo_deval,464,,<div></div>,32,1400,test,,,,,,,,,,,,-1,-1,500,0,fixation,poldrack-single-stim,517,636067,0.0-6.3-22.3,go_nogo_deval,464,,<div class = centerbox><div class = fixation>+</div></div>,none,500,test,,,,,,,,,,,,443,32,850,0,stim,poldrack-single-stim,518,636919,0.0-6.3-23.3,go_nogo_deval,464,,<img class = center src='/static/experiments/go_nogo_deval/images/blue_rhombus.png'></img>,32,850,test,blue_rhombus,go1,32,7,3,,,,,,,-1,-1,1400,0,ITI,poldrack-single-stim,519,638320,0.0-6.3-24.3,go_nogo_deval,464,,<div></div>,32,1400,test,,,,,,,,,,,,-1,-1,500,0,fixation,poldrack-single-stim,520,638821,0.0-6.3-25.3,go_nogo_deval,464,,<div class = centerbox><div class = fixation>+</div></div>,none,500,test,,,,,,,,,,,,390,32,850,0,stim,poldrack-single-stim,521,639673,0.0-6.3-26.3,go_nogo_deval,464,,<img class = center src='/static/experiments/go_nogo_deval/images/blue_rhombus.png'></img>,32,850,test,blue_rhombus,go1,32,8,3,,,,,,,-1,-1,1400,0,ITI,poldrack-single-stim,522,641075,0.0-6.3-27.3,go_nogo_deval,464,,<div></div>,32,1400,test,,,,,,,,,,,,-1,-1,500,0,fixation,poldrack-single-stim,523,641577,0.0-6.3-28.3,go_nogo_deval,464,,<div class = centerbox><div class = fixation>+</div></div>,none,500,test,,,,,,,,,,,,379,32,850,0,stim,poldrack-single-stim,524,642429,0.0-6.3-29.3,go_nogo_deval,464,,<img class = center src='/static/experiments/go_nogo_deval/images/blue_rhombus.png'></img>,32,850,test,blue_rhombus,go1,32,9,3,,,,,,,-1,-1,1400,0,ITI,poldrack-single-stim,525,643831,0.0-6.3-30.3,go_nogo_deval,464,,<div></div>,32,1400,test,,,,,,,,,,,,-1,-1,500,0,fixation,poldrack-single-stim,526,644332,0.0-6.3-31.3,go_nogo_deval,464,,<div class = centerbox><div class = fixation>+</div></div>,none,500,test,,,,,,,,,,,,-1,-1,850,0,stim,poldrack-single-stim,527,645183,0.0-6.3-32.3,go_nogo_deval,464,,<img class = center src='/static/experiments/go_nogo_deval/images/red_circle.png'></img>,32,850,test,red_circle,nogo2,-1,10,3,,,,,,,-1,-1,1400,0,ITI,poldrack-single-stim,528,646585,0.0-6.3-33.3,go_nogo_deval,464,,<div></div>,32,1400,test,,,,,,,,,,,,-1,-1,500,0,fixation,poldrack-single-stim,529,647087,0.0-6.3-34.3,go_nogo_deval,464,,<div class = centerbox><div class = fixation>+</div></div>,none,500,test,,,,,,,,,,,,382,32,850,0,stim,poldrack-single-stim,530,647939,0.0-6.3-35.3,go_nogo_deval,464,,<img class = center src='/static/experiments/go_nogo_deval/images/blue_rhombus.png'></img>,32,850,test,blue_rhombus,go1,32,11,3,,,,,,,-1,-1,1400,0,ITI,poldrack-single-stim,531,649341,0.0-6.3-36.3,go_nogo_deval,464,,<div></div>,32,1400,test,,,,,,,,,,,,-1,-1,500,0,fixation,poldrack-single-stim,532,649842,0.0-6.3-37.3,go_nogo_deval,464,,<div class = centerbox><div class = fixation>+</div></div>,none,500,test,,,,,,,,,,,,-1,-1,850,0,stim,poldrack-single-stim,533,650694,0.0-6.3-38.3,go_nogo_deval,464,,<img class = center src='/static/experiments/go_nogo_deval/images/purple_triangle.png'></img>,32,850,test,purple_triangle,nogo1,-1,12,3,,,,,,,-1,-1,1400,0,ITI,poldrack-single-stim,534,652096,0.0-6.3-39.3,go_nogo_deval,464,,<div></div>,32,1400,test,,,,,,,,,,,,-1,-1,500,0,fixation,poldrack-single-stim,535,652598,0.0-6.3-40.3,go_nogo_deval,464,,<div class = centerbox><div class = fixation>+</div></div>,none,500,test,,,,,,,,,,,,-1,-1,850,0,stim,poldrack-single-stim,536,653449,0.0-6.3-41.3,go_nogo_deval,464,,<img class = center src='/static/experiments/go_nogo_deval/images/red_circle.png'></img>,32,850,test,red_circle,nogo2,-1,13,3,,,,,,,-1,-1,1400,0,ITI,poldrack-single-stim,537,654851,0.0-6.3-42.3,go_nogo_deval,464,,<div></div>,32,1400,test,,,,,,,,,,,,-1,-1,500,0,fixation,poldrack-single-stim,538,655352,0.0-6.3-43.3,go_nogo_deval,464,,<div class = centerbox><div class = fixation>+</div></div>,none,500,test,,,,,,,,,,,,409,32,850,0,stim,poldrack-single-stim,539,656204,0.0-6.3-44.3,go_nogo_deval,464,,<img class = center src='/static/experiments/go_nogo_deval/images/green_pentagon.png'></img>,32,850,test,green_pentagon,go2,32,14,3,,,,,,,-1,-1,1400,0,ITI,poldrack-single-stim,540,657606,0.0-6.3-45.3,go_nogo_deval,464,,<div></div>,32,1400,test,,,,,,,,,,,,-1,-1,500,0,fixation,poldrack-single-stim,541,658107,0.0-6.3-46.3,go_nogo_deval,464,,<div class = centerbox><div class = fixation>+</div></div>,none,500,test,,,,,,,,,,,,-1,-1,850,0,stim,poldrack-single-stim,542,658958,0.0-6.3-47.3,go_nogo_deval,464,,<img class = center src='/static/experiments/go_nogo_deval/images/purple_triangle.png'></img>,32,850,test,purple_triangle,nogo1,-1,15,3,,,,,,,-1,-1,1400,0,ITI,poldrack-single-stim,543,660359,0.0-6.3-48.3,go_nogo_deval,464,,<div></div>,32,1400,test,,,,,,,,,,,,-1,-1,500,0,fixation,poldrack-single-stim,544,660861,0.0-6.3-49.3,go_nogo_deval,464,,<div class = centerbox><div class = fixation>+</div></div>,none,500,test,,,,,,,,,,,,423,32,850,0,stim,poldrack-single-stim,545,661712,0.0-6.3-50.3,go_nogo_deval,464,,<img class = center src='/static/experiments/go_nogo_deval/images/green_pentagon.png'></img>,32,850,test,green_pentagon,go2,32,16,3,,,,,,,-1,-1,1400,0,ITI,poldrack-single-stim,546,663113,0.0-6.3-51.3,go_nogo_deval,464,,<div></div>,32,1400,test,,,,,,,,,,,,-1,-1,500,0,fixation,poldrack-single-stim,547,663615,0.0-6.3-52.3,go_nogo_deval,464,,<div class = centerbox><div class = fixation>+</div></div>,none,500,test,,,,,,,,,,,,379,32,850,0,stim,poldrack-single-stim,548,664467,0.0-6.3-53.3,go_nogo_deval,464,,<img class = center src='/static/experiments/go_nogo_deval/images/green_pentagon.png'></img>,32,850,test,green_pentagon,go2,32,17,3,,,,,,,-1,-1,1400,0,ITI,poldrack-single-stim,549,665868,0.0-6.3-54.3,go_nogo_deval,464,,<div></div>,32,1400,test,,,,,,,,,,,,-1,-1,500,0,fixation,poldrack-single-stim,550,666370,0.0-6.3-55.3,go_nogo_deval,464,,<div class = centerbox><div class = fixation>+</div></div>,none,500,test,,,,,,,,,,,,404,32,850,0,stim,poldrack-single-stim,551,667222,0.0-6.3-56.3,go_nogo_deval,464,,<img class = center src='/static/experiments/go_nogo_deval/images/blue_rhombus.png'></img>,32,850,test,blue_rhombus,go1,32,18,3,,,,,,,-1,-1,1400,0,ITI,poldrack-single-stim,552,668624,0.0-6.3-57.3,go_nogo_deval,464,,<div></div>,32,1400,test,,,,,,,,,,,,-1,-1,500,0,fixation,poldrack-single-stim,553,669125,0.0-6.3-58.3,go_nogo_deval,464,,<div class = centerbox><div class = fixation>+</div></div>,none,500,test,,,,,,,,,,,,371,32,850,0,stim,poldrack-single-stim,554,669977,0.0-6.3-59.3,go_nogo_deval,464,,<img class = center src='/static/experiments/go_nogo_deval/images/green_pentagon.png'></img>,32,850,test,green_pentagon,go2,32,19,3,,,,,,,-1,-1,1400,0,ITI,poldrack-single-stim,555,671379,0.0-6.3-60.3,go_nogo_deval,464,,<div></div>,32,1400,test,,,,,,,,,,,,-1,-1,500,0,fixation,poldrack-single-stim,556,671880,0.0-6.3-61.3,go_nogo_deval,464,,<div class = centerbox><div class = fixation>+</div></div>,none,500,test,,,,,,,,,,,,373,32,850,0,stim,poldrack-single-stim,557,672732,0.0-6.3-62.3,go_nogo_deval,464,,<img class = center src='/static/experiments/go_nogo_deval/images/blue_rhombus.png'></img>,32,850,test,blue_rhombus,go1,32,20,3,,,,,,,-1,-1,1400,0,ITI,poldrack-single-stim,558,674133,0.0-6.3-63.3,go_nogo_deval,464,,<div></div>,32,1400,test,,,,,,,,,,,,-1,-1,500,0,fixation,poldrack-single-stim,559,674635,0.0-6.3-64.3,go_nogo_deval,464,,<div class = centerbox><div class = fixation>+</div></div>,none,500,test,,,,,,,,,,,,363,32,850,0,stim,poldrack-single-stim,560,675487,0.0-6.3-65.3,go_nogo_deval,464,,<img class = center src='/static/experiments/go_nogo_deval/images/blue_rhombus.png'></img>,32,850,test,blue_rhombus,go1,32,21,3,,,,,,,-1,-1,1400,0,ITI,poldrack-single-stim,561,676889,0.0-6.3-66.3,go_nogo_deval,464,,<div></div>,32,1400,test,,,,,,,,,,,,-1,-1,500,0,fixation,poldrack-single-stim,562,677390,0.0-6.3-67.3,go_nogo_deval,464,,<div class = centerbox><div class = fixation>+</div></div>,none,500,test,,,,,,,,,,,,409,32,850,0,stim,poldrack-single-stim,563,678241,0.0-6.3-68.3,go_nogo_deval,464,,<img class = center src='/static/experiments/go_nogo_deval/images/green_pentagon.png'></img>,32,850,test,green_pentagon,go2,32,22,3,,,,,,,-1,-1,1400,0,ITI,poldrack-single-stim,564,679642,0.0-6.3-69.3,go_nogo_deval,464,,<div></div>,32,1400,test,,,,,,,,,,,,-1,-1,500,0,fixation,poldrack-single-stim,565,680143,0.0-6.3-70.3,go_nogo_deval,464,,<div class = centerbox><div class = fixation>+</div></div>,none,500,test,,,,,,,,,,,,345,32,850,0,stim,poldrack-single-stim,566,680995,0.0-6.3-71.3,go_nogo_deval,464,,<img class = center src='/static/experiments/go_nogo_deval/images/green_pentagon.png'></img>,32,850,test,green_pentagon,go2,32,23,3,,,,,,,-1,-1,1400,0,ITI,poldrack-single-stim,567,682397,0.0-6.3-72.3,go_nogo_deval,464,,<div></div>,32,1400,test,,,,,,,,,,,,-1,-1,500,0,fixation,poldrack-single-stim,568,682899,0.0-6.3-73.3,go_nogo_deval,464,,<div class = centerbox><div class = fixation>+</div></div>,none,500,test,,,,,,,,,,,,469,32,850,0,stim,poldrack-single-stim,569,683750,0.0-6.3-74.3,go_nogo_deval,464,,<img class = center src='/static/experiments/go_nogo_deval/images/blue_rhombus.png'></img>,32,850,test,blue_rhombus,go1,32,24,3,,,,,,,-1,-1,1400,0,ITI,poldrack-single-stim,570,685152,0.0-6.3-75.3,go_nogo_deval,464,,<div></div>,32,1400,test,,,,,,,,,,,,-1,-1,500,0,fixation,poldrack-single-stim,571,685654,0.0-6.3-76.3,go_nogo_deval,464,,<div class = centerbox><div class = fixation>+</div></div>,none,500,test,,,,,,,,,,,,313,32,850,0,stim,poldrack-single-stim,572,686506,0.0-6.3-77.3,go_nogo_deval,464,,<img class = center src='/static/experiments/go_nogo_deval/images/blue_rhombus.png'></img>,32,850,test,blue_rhombus,go1,32,25,3,,,,,,