text,rt,key_press,block_duration,timing_post_trial,trial_id,trial_type,trial_index,time_elapsed,internal_node_id,exp_id,subject_ID,view_history,stimulus,possible_responses,stim_duration,exp_stage,stim,go_nogo_type,correct_response,current_trial,current_block,chosenStim,chosenCond,stimLeft,cond_left,stimRight,cond_right<div class = centerbox><p class = center-block-text>Welcome to the task!</p><p class = center-block-text>Press<strong> enter</strong> to continue.</p></div>,2434,13,2434,0,welcome,poldrack-text,0,2436,0.0-0.0,go_nogo_deval,432,,,,,,,,,,,,,,,,,38096,,,,instruction,poldrack-instructions,1,40533,0.0-1.0,go_nogo_deval,432,"[{""page_index"":0,""viewing_time"":3287},{""page_index"":1,""viewing_time"":34809}]",,,,,,,,,,,,,,,,8454,13,8454,0,stop_intro_phase1,poldrack-single-stim,2,49990,0.0-2.0,go_nogo_deval,432,,"<div class = centerbox><p class = block-text>We will now start the practice for the experiment.<br><br>For these trials, you must press the <strong>spacebar </strong> or have <strong>no response</strong> depending on the shape of the stimulus.  Make sure to respond as quickly and accurately as possible to the shape. <br><br> The responses for each shape are as follows: <ul list-text><li>pentagon: spacebar</li><li>triangle: spacebar</li><li>circle: no response</li><li>rhombus: no response</li></ul></p><p class = block-text>Remember these rules before you proceed.</p><p class = block-text>Press <strong> enter</strong> to begin.</p></div>",13,8454,,,,,,,,,,,,,1449,13,1449,0,practice-no-stop-feedback,poldrack-single-stim,3,51441,0.0-3.0-0.0,go_nogo_deval,432,,<div class = centerbox><p class = block-text>We will now start with a practice session. In this practice concentrate on responding quickly and accurately to each stimuli unless it requires no response.</p><p class = block-text>Press enter to continue.</p></div>,13,1449,,,,,,,,,,,,,-1,-1,500,0,prompt_fixation,poldrack-single-stim,4,51943,0.0-3.0-1.0,go_nogo_deval,432,,<div class = centerbox><div class = fixation>+</div></div>,none,500,practice,,,,,,,,,,,,-1,-1,850,0,stim,poldrack-single-stim,5,52796,0.0-3.0-2.0,go_nogo_deval,432,,<img class = center src='/static/experiments/go_nogo_deval/images/green_pentagon.png'></img>,32,850,practice,green_pentagon,go1,32,0,0,,,,,,,139,32,1400,0,ITI,poldrack-single-stim,6,54199,0.0-3.0-3.0,go_nogo_deval,432,,<div></div>,32,1400,practice,,,,,,,,,,,,-1,-1,500,0,prompt_fixation,poldrack-single-stim,7,54700,0.0-3.0-4.0,go_nogo_deval,432,,<div class = centerbox><div class = fixation>+</div></div>,none,500,practice,,,,,,,,,,,,-1,-1,850,0,stim,poldrack-single-stim,8,55552,0.0-3.0-5.0,go_nogo_deval,432,,<img class = center src='/static/experiments/go_nogo_deval/images/green_pentagon.png'></img>,32,850,practice,green_pentagon,go1,32,1,0,,,,,,,50,32,1400,0,ITI,poldrack-single-stim,9,56954,0.0-3.0-6.0,go_nogo_deval,432,,<div></div>,32,1400,practice,,,,,,,,,,,,-1,-1,500,0,prompt_fixation,poldrack-single-stim,10,57456,0.0-3.0-7.0,go_nogo_deval,432,,<div class = centerbox><div class = fixation>+</div></div>,none,500,practice,,,,,,,,,,,,463,32,850,0,stim,poldrack-single-stim,11,58308,0.0-3.0-8.0,go_nogo_deval,432,,<img class = center src='/static/experiments/go_nogo_deval/images/blue_triangle.png'></img>,32,850,practice,blue_triangle,go2,32,2,0,,,,,,,-1,-1,1400,0,ITI,poldrack-single-stim,12,59710,0.0-3.0-9.0,go_nogo_deval,432,,<div></div>,32,1400,practice,,,,,,,,,,,,-1,-1,500,0,prompt_fixation,poldrack-single-stim,13,60211,0.0-3.0-10.0,go_nogo_deval,432,,<div class = centerbox><div class = fixation>+</div></div>,none,500,practice,,,,,,,,,,,,499,32,850,0,stim,poldrack-single-stim,14,61062,0.0-3.0-11.0,go_nogo_deval,432,,<img class = center src='/static/experiments/go_nogo_deval/images/blue_triangle.png'></img>,32,850,practice,blue_triangle,go2,32,3,0,,,,,,,-1,-1,1400,0,ITI,poldrack-single-stim,15,62464,0.0-3.0-12.0,go_nogo_deval,432,,<div></div>,32,1400,practice,,,,,,,,,,,,-1,-1,500,0,prompt_fixation,poldrack-single-stim,16,62966,0.0-3.0-13.0,go_nogo_deval,432,,<div class = centerbox><div class = fixation>+</div></div>,none,500,practice,,,,,,,,,,,,603,32,850,0,stim,poldrack-single-stim,17,63818,0.0-3.0-14.0,go_nogo_deval,432,,<img class = center src='/static/experiments/go_nogo_deval/images/green_pentagon.png'></img>,32,850,practice,green_pentagon,go1,32,4,0,,,,,,,-1,-1,1400,0,ITI,poldrack-single-stim,18,65220,0.0-3.0-15.0,go_nogo_deval,432,,<div></div>,32,1400,practice,,,,,,,,,,,,-1,-1,500,0,prompt_fixation,poldrack-single-stim,19,65722,0.0-3.0-16.0,go_nogo_deval,432,,<div class = centerbox><div class = fixation>+</div></div>,none,500,practice,,,,,,,,,,,,-1,-1,850,0,stim,poldrack-single-stim,20,66574,0.0-3.0-17.0,go_nogo_deval,432,,<img class = center src='/static/experiments/go_nogo_deval/images/red_rhombus.png'></img>,32,850,practice,red_rhombus,nogo2,-1,5,0,,,,,,,-1,-1,1400,0,ITI,poldrack-single-stim,21,67976,0.0-3.0-18.0,go_nogo_deval,432,,<div></div>,32,1400,practice,,,,,,,,,,,,-1,-1,500,0,prompt_fixation,poldrack-single-stim,22,68477,0.0-3.0-19.0,go_nogo_deval,432,,<div class = centerbox><div class = fixation>+</div></div>,none,500,practice,,,,,,,,,,,,-1,-1,850,0,stim,poldrack-single-stim,23,69330,0.0-3.0-20.0,go_nogo_deval,432,,<img class = center src='/static/experiments/go_nogo_deval/images/red_rhombus.png'></img>,32,850,practice,red_rhombus,nogo2,-1,6,0,,,,,,,-1,-1,1400,0,ITI,poldrack-single-stim,24,70731,0.0-3.0-21.0,go_nogo_deval,432,,<div></div>,32,1400,practice,,,,,,,,,,,,-1,-1,500,0,prompt_fixation,poldrack-single-stim,25,71232,0.0-3.0-22.0,go_nogo_deval,432,,<div class = centerbox><div class = fixation>+</div></div>,none,500,practice,,,,,,,,,,,,-1,-1,850,0,stim,poldrack-single-stim,26,72084,0.0-3.0-23.0,go_nogo_deval,432,,<img class = center src='/static/experiments/go_nogo_deval/images/purple_circle.png'></img>,32,850,practice,purple_circle,nogo1,-1,7,0,,,,,,,-1,-1,1400,0,ITI,poldrack-single-stim,27,73486,0.0-3.0-24.0,go_nogo_deval,432,,<div></div>,32,1400,practice,,,,,,,,,,,,-1,-1,500,0,prompt_fixation,poldrack-single-stim,28,73988,0.0-3.0-25.0,go_nogo_deval,432,,<div class = centerbox><div class = fixation>+</div></div>,none,500,practice,,,,,,,,,,,,-1,-1,850,0,stim,poldrack-single-stim,29,74840,0.0-3.0-26.0,go_nogo_deval,432,,<img class = center src='/static/experiments/go_nogo_deval/images/purple_circle.png'></img>,32,850,practice,purple_circle,nogo1,-1,8,0,,,,,,,-1,-1,1400,0,ITI,poldrack-single-stim,30,76241,0.0-3.0-27.0,go_nogo_deval,432,,<div></div>,32,1400,practice,,,,,,,,,,,,-1,-1,500,0,prompt_fixation,poldrack-single-stim,31,76743,0.0-3.0-28.0,go_nogo_deval,432,,<div class = centerbox><div class = fixation>+</div></div>,none,500,practice,,,,,,,,,,,,-1,-1,850,0,stim,poldrack-single-stim,32,77594,0.0-3.0-29.0,go_nogo_deval,432,,<img class = center src='/static/experiments/go_nogo_deval/images/purple_circle.png'></img>,32,850,practice,purple_circle,nogo1,-1,9,0,,,,,,,-1,-1,1400,0,ITI,poldrack-single-stim,33,78996,0.0-3.0-30.0,go_nogo_deval,432,,<div></div>,32,1400,practice,,,,,,,,,,,,-1,-1,500,0,prompt_fixation,poldrack-single-stim,34,79498,0.0-3.0-31.0,go_nogo_deval,432,,<div class = centerbox><div class = fixation>+</div></div>,none,500,practice,,,,,,,,,,,,653,32,850,0,stim,poldrack-single-stim,35,80350,0.0-3.0-32.0,go_nogo_deval,432,,<img class = center src='/static/experiments/go_nogo_deval/images/green_pentagon.png'></img>,32,850,practice,green_pentagon,go1,32,10,0,,,,,,,-1,-1,1400,0,ITI,poldrack-single-stim,36,81751,0.0-3.0-33.0,go_nogo_deval,432,,<div></div>,32,1400,practice,,,,,,,,,,,,-1,-1,500,0,prompt_fixation,poldrack-single-stim,37,82252,0.0-3.0-34.0,go_nogo_deval,432,,<div class = centerbox><div class = fixation>+</div></div>,none,500,practice,,,,,,,,,,,,474,32,850,0,stim,poldrack-single-stim,38,83104,0.0-3.0-35.0,go_nogo_deval,432,,<img class = center src='/static/experiments/go_nogo_deval/images/green_pentagon.png'></img>,32,850,practice,green_pentagon,go1,32,11,0,,,,,,,-1,-1,1400,0,ITI,poldrack-single-stim,39,84506,0.0-3.0-36.0,go_nogo_deval,432,,<div></div>,32,1400,practice,,,,,,,,,,,,-1,-1,500,0,prompt_fixation,poldrack-single-stim,40,85008,0.0-3.0-37.0,go_nogo_deval,432,,<div class = centerbox><div class = fixation>+</div></div>,none,500,practice,,,,,,,,,,,,429,32,850,0,stim,poldrack-single-stim,41,85861,0.0-3.0-38.0,go_nogo_deval,432,,<img class = center src='/static/experiments/go_nogo_deval/images/blue_triangle.png'></img>,32,850,practice,blue_triangle,go2,32,12,0,,,,,,,-1,-1,1400,0,ITI,poldrack-single-stim,42,87263,0.0-3.0-39.0,go_nogo_deval,432,,<div></div>,32,1400,practice,,,,,,,,,,,,-1,-1,500,0,prompt_fixation,poldrack-single-stim,43,87764,0.0-3.0-40.0,go_nogo_deval,432,,<div class = centerbox><div class = fixation>+</div></div>,none,500,practice,,,,,,,,,,,,374,32,850,0,stim,poldrack-single-stim,44,88616,0.0-3.0-41.0,go_nogo_deval,432,,<img class = center src='/static/experiments/go_nogo_deval/images/blue_triangle.png'></img>,32,850,practice,blue_triangle,go2,32,13,0,,,,,,,-1,-1,1400,0,ITI,poldrack-single-stim,45,90018,0.0-3.0-42.0,go_nogo_deval,432,,<div></div>,32,1400,practice,,,,,,,,,,,,-1,-1,500,0,prompt_fixation,poldrack-single-stim,46,90521,0.0-3.0-43.0,go_nogo_deval,432,,<div class = centerbox><div class = fixation>+</div></div>,none,500,practice,,,,,,,,,,,,430,32,850,0,stim,poldrack-single-stim,47,91373,0.0-3.0-44.0,go_nogo_deval,432,,<img class = center src='/static/experiments/go_nogo_deval/images/blue_triangle.png'></img>,32,850,practice,blue_triangle,go2,32,14,0,,,,,,,-1,-1,1400,0,ITI,poldrack-single-stim,48,92775,0.0-3.0-45.0,go_nogo_deval,432,,<div></div>,32,1400,practice,,,,,,,,,,,,-1,-1,500,0,prompt_fixation,poldrack-single-stim,49,93276,0.0-3.0-46.0,go_nogo_deval,432,,<div class = centerbox><div class = fixation>+</div></div>,none,500,practice,,,,,,,,,,,,-1,-1,850,0,stim,poldrack-single-stim,50,94129,0.0-3.0-47.0,go_nogo_deval,432,,<img class = center src='/static/experiments/go_nogo_deval/images/red_rhombus.png'></img>,32,850,practice,red_rhombus,nogo2,-1,15,0,,,,,,,-1,-1,1400,0,ITI,poldrack-single-stim,51,95531,0.0-3.0-48.0,go_nogo_deval,432,,<div></div>,32,1400,practice,,,,,,,,,,,,-1,-1,500,0,prompt_fixation,poldrack-single-stim,52,96032,0.0-3.0-49.0,go_nogo_deval,432,,<div class = centerbox><div class = fixation>+</div></div>,none,500,practice,,,,,,,,,,,,498,32,850,0,stim,poldrack-single-stim,53,96883,0.0-3.0-50.0,go_nogo_deval,432,,<img class = center src='/static/experiments/go_nogo_deval/images/green_pentagon.png'></img>,32,850,practice,green_pentagon,go1,32,16,0,,,,,,,-1,-1,1400,0,ITI,poldrack-single-stim,54,98285,0.0-3.0-51.0,go_nogo_deval,432,,<div></div>,32,1400,practice,,,,,,,,,,,,-1,-1,500,0,prompt_fixation,poldrack-single-stim,55,98787,0.0-3.0-52.0,go_nogo_deval,432,,<div class = centerbox><div class = fixation>+</div></div>,none,500,practice,,,,,,,,,,,,521,32,850,0,stim,poldrack-single-stim,56,99639,0.0-3.0-53.0,go_nogo_deval,432,,<img class = center src='/static/experiments/go_nogo_deval/images/blue_triangle.png'></img>,32,850,practice,blue_triangle,go2,32,17,0,,,,,,,-1,-1,1400,0,ITI,poldrack-single-stim,57,101040,0.0-3.0-54.0,go_nogo_deval,432,,<div></div>,32,1400,practice,,,,,,,,,,,,2970,13,2970,0,practice-no-stop-feedback,poldrack-single-stim,58,104012,0.0-4.0,go_nogo_deval,432,,<div class = centerbox><p class = block-text><br>Please take this time to read your feedback and to take a short break! Press enter to continue</p><p class = block-text><strong>Average reaction time:  494 ms. Accuracy: 89%</strong></p><p class = block-text>Done with this practice.</p></div>,13,2970,,,,,,,,,,,,,37755,13,37755,0,main_stop_intro_phase3,poldrack-single-stim,59,141768,0.0-5.0,go_nogo_deval,432,,"<div class = centerbox><p class = block-text>We will now start the main phase of the experiment.<br><br>These trials are the same as the trials that you have just completed. <br><br>The rules for each shape are as follows:  <br><ul list-text><li>pentagon: spacebar</li><li>triangle: spacebar</li><li>circle: no response</li><li>rhombus: no response</li></ul></p><p class = block-text>Remember these rules before you proceed, as they will no longer be presented during the trial.</p><p class = block-text>Press <strong> enter</strong> to begin.</p></div>",13,37755,,,,,,,,,,,,,989,13,989,0,practice-no-stop-feedback,poldrack-single-stim,60,142757,0.0-6.0-0.0,go_nogo_deval,432,,"<div class = centerbox><p class = block-text>We will now start with a test session. In this test, concentrate on responding quickly and accurately to each stimuli unless it requires no response.</p><p class = block-text>Press enter to continue.</p></div>",13,989,,,,,,,,,,,,,-1,-1,500,0,fixation,poldrack-single-stim,61,143259,0.0-6.0-1.0,go_nogo_deval,432,,<div class = centerbox><div class = fixation>+</div></div>,none,500,test,,,,,,,,,,,,-1,-1,850,0,stim,poldrack-single-stim,62,144110,0.0-6.0-2.0,go_nogo_deval,432,,<img class = center src='/static/experiments/go_nogo_deval/images/purple_circle.png'></img>,32,850,test,purple_circle,nogo1,-1,0,0,,,,,,,-1,-1,1400,0,ITI,poldrack-single-stim,63,145512,0.0-6.0-3.0,go_nogo_deval,432,,<div></div>,32,1400,test,,,,,,,,,,,,-1,-1,500,0,fixation,poldrack-single-stim,64,146014,0.0-6.0-4.0,go_nogo_deval,432,,<div class = centerbox><div class = fixation>+</div></div>,none,500,test,,,,,,,,,,,,601,32,850,0,stim,poldrack-single-stim,65,146866,0.0-6.0-5.0,go_nogo_deval,432,,<img class = center src='/static/experiments/go_nogo_deval/images/green_pentagon.png'></img>,32,850,test,green_pentagon,go1,32,1,0,,,,,,,-1,-1,1400,0,ITI,poldrack-single-stim,66,148268,0.0-6.0-6.0,go_nogo_deval,432,,<div></div>,32,1400,test,,,,,,,,,,,,-1,-1,500,0,fixation,poldrack-single-stim,67,148770,0.0-6.0-7.0,go_nogo_deval,432,,<div class = centerbox><div class = fixation>+</div></div>,none,500,test,,,,,,,,,,,,422,32,850,0,stim,poldrack-single-stim,68,149622,0.0-6.0-8.0,go_nogo_deval,432,,<img class = center src='/static/experiments/go_nogo_deval/images/green_pentagon.png'></img>,32,850,test,green_pentagon,go1,32,2,0,,,,,,,-1,-1,1400,0,ITI,poldrack-single-stim,69,151024,0.0-6.0-9.0,go_nogo_deval,432,,<div></div>,32,1400,test,,,,,,,,,,,,-1,-1,500,0,fixation,poldrack-single-stim,70,151525,0.0-6.0-10.0,go_nogo_deval,432,,<div class = centerbox><div class = fixation>+</div></div>,none,500,test,,,,,,,,,,,,-1,-1,850,0,stim,poldrack-single-stim,71,152376,0.0-6.0-11.0,go_nogo_deval,432,,<img class = center src='/static/experiments/go_nogo_deval/images/purple_circle.png'></img>,32,850,test,purple_circle,nogo1,-1,3,0,,,,,,,-1,-1,1400,0,ITI,poldrack-single-stim,72,153778,0.0-6.0-12.0,go_nogo_deval,432,,<div></div>,32,1400,test,,,,,,,,,,,,-1,-1,500,0,fixation,poldrack-single-stim,73,154280,0.0-6.0-13.0,go_nogo_deval,432,,<div class = centerbox><div class = fixation>+</div></div>,none,500,test,,,,,,,,,,,,447,32,850,0,stim,poldrack-single-stim,74,155132,0.0-6.0-14.0,go_nogo_deval,432,,<img class = center src='/static/experiments/go_nogo_deval/images/blue_triangle.png'></img>,32,850,test,blue_triangle,go2,32,4,0,,,,,,,-1,-1,1400,0,ITI,poldrack-single-stim,75,156534,0.0-6.0-15.0,go_nogo_deval,432,,<div></div>,32,1400,test,,,,,,,,,,,,-1,-1,500,0,fixation,poldrack-single-stim,76,157036,0.0-6.0-16.0,go_nogo_deval,432,,<div class = centerbox><div class = fixation>+</div></div>,none,500,test,,,,,,,,,,,,436,32,850,0,stim,poldrack-single-stim,77,157887,0.0-6.0-17.0,go_nogo_deval,432,,<img class = center src='/static/experiments/go_nogo_deval/images/blue_triangle.png'></img>,32,850,test,blue_triangle,go2,32,5,0,,,,,,,-1,-1,1400,0,ITI,poldrack-single-stim,78,159289,0.0-6.0-18.0,go_nogo_deval,432,,<div></div>,32,1400,test,,,,,,,,,,,,-1,-1,500,0,fixation,poldrack-single-stim,79,159790,0.0-6.0-19.0,go_nogo_deval,432,,<div class = centerbox><div class = fixation>+</div></div>,none,500,test,,,,,,,,,,,,460,32,850,0,stim,poldrack-single-stim,80,160642,0.0-6.0-20.0,go_nogo_deval,432,,<img class = center src='/static/experiments/go_nogo_deval/images/green_pentagon.png'></img>,32,850,test,green_pentagon,go1,32,6,0,,,,,,,-1,-1,1400,0,ITI,poldrack-single-stim,81,162044,0.0-6.0-21.0,go_nogo_deval,432,,<div></div>,32,1400,test,,,,,,,,,,,,-1,-1,500,0,fixation,poldrack-single-stim,82,162546,0.0-6.0-22.0,go_nogo_deval,432,,<div class = centerbox><div class = fixation>+</div></div>,none,500,test,,,,,,,,,,,,461,32,850,0,stim,poldrack-single-stim,83,163398,0.0-6.0-23.0,go_nogo_deval,432,,<img class = center src='/static/experiments/go_nogo_deval/images/green_pentagon.png'></img>,32,850,test,green_pentagon,go1,32,7,0,,,,,,,-1,-1,1400,0,ITI,poldrack-single-stim,84,164798,0.0-6.0-24.0,go_nogo_deval,432,,<div></div>,32,1400,test,,,,,,,,,,,,-1,-1,500,0,fixation,poldrack-single-stim,85,165301,0.0-6.0-25.0,go_nogo_deval,432,,<div class = centerbox><div class = fixation>+</div></div>,none,500,test,,,,,,,,,,,,418,32,850,0,stim,poldrack-single-stim,86,166153,0.0-6.0-26.0,go_nogo_deval,432,,<img class = center src='/static/experiments/go_nogo_deval/images/green_pentagon.png'></img>,32,850,test,green_pentagon,go1,32,8,0,,,,,,,-1,-1,1400,0,ITI,poldrack-single-stim,87,167554,0.0-6.0-27.0,go_nogo_deval,432,,<div></div>,32,1400,test,,,,,,,,,,,,-1,-1,500,0,fixation,poldrack-single-stim,88,168056,0.0-6.0-28.0,go_nogo_deval,432,,<div class = centerbox><div class = fixation>+</div></div>,none,500,test,,,,,,,,,,,,418,32,850,0,stim,poldrack-single-stim,89,168908,0.0-6.0-29.0,go_nogo_deval,432,,<img class = center src='/static/experiments/go_nogo_deval/images/green_pentagon.png'></img>,32,850,test,green_pentagon,go1,32,9,0,,,,,,,-1,-1,1400,0,ITI,poldrack-single-stim,90,170309,0.0-6.0-30.0,go_nogo_deval,432,,<div></div>,32,1400,test,,,,,,,,,,,,-1,-1,500,0,fixation,poldrack-single-stim,91,170811,0.0-6.0-31.0,go_nogo_deval,432,,<div class = centerbox><div class = fixation>+</div></div>,none,500,test,,,,,,,,,,,,430,32,850,0,stim,poldrack-single-stim,92,171663,0.0-6.0-32.0,go_nogo_deval,432,,<img class = center src='/static/experiments/go_nogo_deval/images/green_pentagon.png'></img>,32,850,test,green_pentagon,go1,32,10,0,,,,,,,-1,-1,1400,0,ITI,poldrack-single-stim,93,173064,0.0-6.0-33.0,go_nogo_deval,432,,<div></div>,32,1400,test,,,,,,,,,,,,-1,-1,500,0,fixation,poldrack-single-stim,94,173566,0.0-6.0-34.0,go_nogo_deval,432,,<div class = centerbox><div class = fixation>+</div></div>,none,500,test,,,,,,,,,,,,-1,-1,850,0,stim,poldrack-single-stim,95,174417,0.0-6.0-35.0,go_nogo_deval,432,,<img class = center src='/static/experiments/go_nogo_deval/images/purple_circle.png'></img>,32,850,test,purple_circle,nogo1,-1,11,0,,,,,,,-1,-1,1400,0,ITI,poldrack-single-stim,96,175819,0.0-6.0-36.0,go_nogo_deval,432,,<div></div>,32,1400,test,,,,,,,,,,,,-1,-1,500,0,fixation,poldrack-single-stim,97,176321,0.0-6.0-37.0,go_nogo_deval,432,,<div class = centerbox><div class = fixation>+</div></div>,none,500,test,,,,,,,,,,,,479,32,850,0,stim,poldrack-single-stim,98,177172,0.0-6.0-38.0,go_nogo_deval,432,,<img class = center src='/static/experiments/go_nogo_deval/images/green_pentagon.png'></img>,32,850,test,green_pentagon,go1,32,12,0,,,,,,,-1,-1,1400,0,ITI,poldrack-single-stim,99,178573,0.0-6.0-39.0,go_nogo_deval,432,,<div></div>,32,1400,test,,,,,,,,,,,,-1,-1,500,0,fixation,poldrack-single-stim,100,179075,0.0-6.0-40.0,go_nogo_deval,432,,<div class = centerbox><div class = fixation>+</div></div>,none,500,test,,,,,,,,,,,,447,32,850,0,stim,poldrack-single-stim,101,179927,0.0-6.0-41.0,go_nogo_deval,432,,<img class = center src='/static/experiments/go_nogo_deval/images/green_pentagon.png'></img>,32,850,test,green_pentagon,go1,32,13,0,,,,,,,-1,-1,1400,0,ITI,poldrack-single-stim,102,181329,0.0-6.0-42.0,go_nogo_deval,432,,<div></div>,32,1400,test,,,,,,,,,,,,-1,-1,500,0,fixation,poldrack-single-stim,103,181830,0.0-6.0-43.0,go_nogo_deval,432,,<div class = centerbox><div class = fixation>+</div></div>,none,500,test,,,,,,,,,,,,471,32,850,0,stim,poldrack-single-stim,104,182682,0.0-6.0-44.0,go_nogo_deval,432,,<img class = center src='/static/experiments/go_nogo_deval/images/blue_triangle.png'></img>,32,850,test,blue_triangle,go2,32,14,0,,,,,,,-1,-1,1400,0,ITI,poldrack-single-stim,105,184084,0.0-6.0-45.0,go_nogo_deval,432,,<div></div>,32,1400,test,,,,,,,,,,,,-1,-1,500,0,fixation,poldrack-single-stim,106,184586,0.0-6.0-46.0,go_nogo_deval,432,,<div class = centerbox><div class = fixation>+</div></div>,none,500,test,,,,,,,,,,,,471,32,850,0,stim,poldrack-single-stim,107,185438,0.0-6.0-47.0,go_nogo_deval,432,,<img class = center src='/static/experiments/go_nogo_deval/images/blue_triangle.png'></img>,32,850,test,blue_triangle,go2,32,15,0,,,,,,,-1,-1,1400,0,ITI,poldrack-single-stim,108,186839,0.0-6.0-48.0,go_nogo_deval,432,,<div></div>,32,1400,test,,,,,,,,,,,,-1,-1,500,0,fixation,poldrack-single-stim,109,187340,0.0-6.0-49.0,go_nogo_deval,432,,<div class = centerbox><div class = fixation>+</div></div>,none,500,test,,,,,,,,,,,,-1,-1,850,0,stim,poldrack-single-stim,110,188192,0.0-6.0-50.0,go_nogo_deval,432,,<img class = center src='/static/experiments/go_nogo_deval/images/purple_circle.png'></img>,32,850,test,purple_circle,nogo1,-1,16,0,,,,,,,-1,-1,1400,0,ITI,poldrack-single-stim,111,189593,0.0-6.0-51.0,go_nogo_deval,432,,<div></div>,32,1400,test,,,,,,,,,,,,-1,-1,500,0,fixation,poldrack-single-stim,112,190095,0.0-6.0-52.0,go_nogo_deval,432,,<div class = centerbox><div class = fixation>+</div></div>,none,500,test,,,,,,,,,,,,-1,-1,850,0,stim,poldrack-single-stim,113,190947,0.0-6.0-53.0,go_nogo_deval,432,,<img class = center src='/static/experiments/go_nogo_deval/images/purple_circle.png'></img>,32,850,test,purple_circle,nogo1,-1,17,0,,,,,,,-1,-1,1400,0,ITI,poldrack-single-stim,114,192348,0.0-6.0-54.0,go_nogo_deval,432,,<div></div>,32,1400,test,,,,,,,,,,,,-1,-1,500,0,fixation,poldrack-single-stim,115,192849,0.0-6.0-55.0,go_nogo_deval,432,,<div class = centerbox><div class = fixation>+</div></div>,none,500,test,,,,,,,,,,,,590,32,850,0,stim,poldrack-single-stim,116,193700,0.0-6.0-56.0,go_nogo_deval,432,,<img class = center src='/static/experiments/go_nogo_deval/images/blue_triangle.png'></img>,32,850,test,blue_triangle,go2,32,18,0,,,,,,,-1,-1,1400,0,ITI,poldrack-single-stim,117,195102,0.0-6.0-57.0,go_nogo_deval,432,,<div></div>,32,1400,test,,,,,,,,,,,,-1,-1,500,0,fixation,poldrack-single-stim,118,195604,0.0-6.0-58.0,go_nogo_deval,432,,<div class = centerbox><div class = fixation>+</div></div>,none,500,test,,,,,,,,,,,,501,32,850,0,stim,poldrack-single-stim,119,196456,0.0-6.0-59.0,go_nogo_deval,432,,<img class = center src='/static/experiments/go_nogo_deval/images/blue_triangle.png'></img>,32,850,test,blue_triangle,go2,32,19,0,,,,,,,-1,-1,1400,0,ITI,poldrack-single-stim,120,197856,0.0-6.0-60.0,go_nogo_deval,432,,<div></div>,32,1400,test,,,,,,,,,,,,-1,-1,500,0,fixation,poldrack-single-stim,121,198358,0.0-6.0-61.0,go_nogo_deval,432,,<div class = centerbox><div class = fixation>+</div></div>,none,500,test,,,,,,,,,,,,-1,-1,850,0,stim,poldrack-single-stim,122,199209,0.0-6.0-62.0,go_nogo_deval,432,,<img class = center src='/static/experiments/go_nogo_deval/images/purple_circle.png'></img>,32,850,test,purple_circle,nogo1,-1,20,0,,,,,,,-1,-1,1400,0,ITI,poldrack-single-stim,123,200610,0.0-6.0-63.0,go_nogo_deval,432,,<div></div>,32,1400,test,,,,,,,,,,,,-1,-1,500,0,fixation,poldrack-single-stim,124,201112,0.0-6.0-64.0,go_nogo_deval,432,,<div class = centerbox><div class = fixation>+</div></div>,none,500,test,,,,,,,,,,,,449,32,850,0,stim,poldrack-single-stim,125,201963,0.0-6.0-65.0,go_nogo_deval,432,,<img class = center src='/static/experiments/go_nogo_deval/images/blue_triangle.png'></img>,32,850,test,blue_triangle,go2,32,21,0,,,,,,,93,32,1400,0,ITI,poldrack-single-stim,126,203365,0.0-6.0-66.0,go_nogo_deval,432,,<div></div>,32,1400,test,,,,,,,,,,,,-1,-1,500,0,fixation,poldrack-single-stim,127,203867,0.0-6.0-67.0,go_nogo_deval,432,,<div class = centerbox><div class = fixation>+</div></div>,none,500,test,,,,,,,,,,,,-1,-1,850,0,stim,poldrack-single-stim,128,204718,0.0-6.0-68.0,go_nogo_deval,432,,<img class = center src='/static/experiments/go_nogo_deval/images/purple_circle.png'></img>,32,850,test,purple_circle,nogo1,-1,22,0,,,,,,,-1,-1,1400,0,ITI,poldrack-single-stim,129,206119,0.0-6.0-69.0,go_nogo_deval,432,,<div></div>,32,1400,test,,,,,,,,,,,,-1,-1,500,0,fixation,poldrack-single-stim,130,206620,0.0-6.0-70.0,go_nogo_deval,432,,<div class = centerbox><div class = fixation>+</div></div>,none,500,test,,,,,,,,,,,,611,32,850,0,stim,poldrack-single-stim,131,207473,0.0-6.0-71.0,go_nogo_deval,432,,<img class = center src='/static/experiments/go_nogo_deval/images/red_rhombus.png'></img>,32,850,test,red_rhombus,nogo2,-1,23,0,,,,,,,-1,-1,1400,0,ITI,poldrack-single-stim,132,208875,0.0-6.0-72.0,go_nogo_deval,432,,<div></div>,32,1400,test,,,,,,,,,,,,-1,-1,500,0,fixation,poldrack-single-stim,133,209378,0.0-6.0-73.0,go_nogo_deval,432,,<div class = centerbox><div class = fixation>+</div></div>,none,500,test,,,,,,,,,,,,486,32,850,0,stim,poldrack-single-stim,134,210230,0.0-6.0-74.0,go_nogo_deval,432,,<img class = center src='/static/experiments/go_nogo_deval/images/green_pentagon.png'></img>,32,850,test,green_pentagon,go1,32,24,0,,,,,,,-1,-1,1400,0,ITI,poldrack-single-stim,135,211631,0.0-6.0-75.0,go_nogo_deval,432,,<div></div>,32,1400,test,,,,,,,,,,,,-1,-1,500,0,fixation,poldrack-single-stim,136,212133,0.0-6.0-76.0,go_nogo_deval,432,,<div class = centerbox><div class = fixation>+</div></div>,none,500,test,,,,,,,,,,,,453,32,850,0,stim,poldrack-single-stim,137,212985,0.0-6.0-77.0,go_nogo_deval,432,,<img class = center src='/static/experiments/go_nogo_deval/images/green_pentagon.png'></img>,32,850,test,green_pentagon,go1,32,25,0,,,,,,,-1,-1,1400,0,ITI,poldrack-single-stim,138,214387,0.0-6.0-78.0,go_nogo_deval,432,,<div></div>,32,1400,test,,,,,,,,,,,,-1,-1,500,0,fixation,poldrack-single-stim,139,214888,0.0-6.0-79.0,go_nogo_deval,432,,<div class = centerbox><div class = fixation>+</div></div>,none,500,test,,,,,,,,,,,,-1,-1,850,0,stim,poldrack-single-stim,140,215740,0.0-6.0-80.0,go_nogo_deval,432,,<img class = center src='/static/experiments/go_nogo_deval/images/red_rhombus.png'></img>,32,850,test,red_rhombus,nogo2,-1,26,0,,,,,,,-1,-1,1400,0,ITI,poldrack-single-stim,141,217142,0.0-6.0-81.0,go_nogo_deval,432,,<div></div>,32,1400,test,,,,,,,,,,,,-1,-1,500,0,fixation,poldrack-single-stim,142,217644,0.0-6.0-82.0,go_nogo_deval,432,,<div class = centerbox><div class = fixation>+</div></div>,none,500,test,,,,,,,,,,,,-1,-1,850,0,stim,poldrack-single-stim,143,218496,0.0-6.0-83.0,go_nogo_deval,432,,<img class = center src='/static/experiments/go_nogo_deval/images/red_rhombus.png'></img>,32,850,test,red_rhombus,nogo2,-1,27,0,,,,,,,-1,-1,1400,0,ITI,poldrack-single-stim,144,219897,0.0-6.0-84.0,go_nogo_deval,432,,<div></div>,32,1400,test,,,,,,,,,,,,-1,-1,500,0,fixation,poldrack-single-stim,145,220399,0.0-6.0-85.0,go_nogo_deval,432,,<div class = centerbox><div class = fixation>+</div></div>,none,500,test,,,,,,,,,,,,479,32,850,0,stim,poldrack-single-stim,146,221250,0.0-6.0-86.0,go_nogo_deval,432,,<img class = center src='/static/experiments/go_nogo_deval/images/blue_triangle.png'></img>,32,850,test,blue_triangle,go2,32,28,0,,,,,,,-1,-1,1400,0,ITI,poldrack-single-stim,147,222652,0.0-6.0-87.0,go_nogo_deval,432,,<div></div>,32,1400,test,,,,,,,,,,,,-1,-1,500,0,fixation,poldrack-single-stim,148,223153,0.0-6.0-88.0,go_nogo_deval,432,,<div class = centerbox><div class = fixation>+</div></div>,none,500,test,,,,,,,,,,,,717,32,850,0,stim,poldrack-single-stim,149,224005,0.0-6.0-89.0,go_nogo_deval,432,,<img class = center src='/static/experiments/go_nogo_deval/images/blue_triangle.png'></img>,32,850,test,blue_triangle,go2,32,29,0,,,,,,,-1,-1,1400,0,ITI,poldrack-single-stim,150,225405,0.0-6.0-90.0,go_nogo_deval,432,,<div></div>,32,1400,test,,,,,,,,,,,,-1,-1,500,0,fixation,poldrack-single-stim,151,225907,0.0-6.0-91.0,go_nogo_deval,432,,<div class = centerbox><div class = fixation>+</div></div>,none,500,test,,,,,,,,,,,,-1,-1,850,0,stim,poldrack-single-stim,152,226758,0.0-6.0-92.0,go_nogo_deval,432,,<img class = center src='/static/experiments/go_nogo_deval/images/red_rhombus.png'></img>,32,850,test,red_rhombus,nogo2,-1,30,0,,,,,,,-1,-1,1400,0,ITI,poldrack-single-stim,153,228160,0.0-6.0-93.0,go_nogo_deval,432,,<div></div>,32,1400,test,,,,,,,,,,,,-1,-1,500,0,fixation,poldrack-single-stim,154,228662,0.0-6.0-94.0,go_nogo_deval,432,,<div class = centerbox><div class = fixation>+</div></div>,none,500,test,,,,,,,,,,,,485,32,850,0,stim,poldrack-single-stim,155,229514,0.0-6.0-95.0,go_nogo_deval,432,,<img class = center src='/static/experiments/go_nogo_deval/images/blue_triangle.png'></img>,32,850,test,blue_triangle,go2,32,31,0,,,,,,,-1,-1,1400,0,ITI,poldrack-single-stim,156,230916,0.0-6.0-96.0,go_nogo_deval,432,,<div></div>,32,1400,test,,,,,,,,,,,,-1,-1,500,0,fixation,poldrack-single-stim,157,231417,0.0-6.0-97.0,go_nogo_deval,432,,<div class = centerbox><div class = fixation>+</div></div>,none,500,test,,,,,,,,,,,,554,32,850,0,stim,poldrack-single-stim,158,232269,0.0-6.0-98.0,go_nogo_deval,432,,<img class = center src='/static/experiments/go_nogo_deval/images/blue_triangle.png'></img>,32,850,test,blue_triangle,go2,32,32,0,,,,,,,-1,-1,1400,0,ITI,poldrack-single-stim,159,233670,0.0-6.0-99.0,go_nogo_deval,432,,<div></div>,32,1400,test,,,,,,,,,,,,-1,-1,500,0,fixation,poldrack-single-stim,160,234172,0.0-6.0-100.0,go_nogo_deval,432,,<div class = centerbox><div class = fixation>+</div></div>,none,500,test,,,,,,,,,,,,-1,-1,850,0,stim,poldrack-single-stim,161,235024,0.0-6.0-101.0,go_nogo_deval,432,,<img class = center src='/static/experiments/go_nogo_deval/images/red_rhombus.png'></img>,32,850,test,red_rhombus,nogo2,-1,33,0,,,,,,,-1,-1,1400,0,ITI,poldrack-single-stim,162,236426,0.0-6.0-102.0,go_nogo_deval,432,,<div></div>,32,1400,test,,,,,,,,,,,,-1,-1,500,0,fixation,poldrack-single-stim,163,236928,0.0-6.0-103.0,go_nogo_deval,432,,<div class = centerbox><div class = fixation>+</div></div>,none,500,test,,,,,,,,,,,,510,32,850,0,stim,poldrack-single-stim,164,237779,0.0-6.0-104.0,go_nogo_deval,432,,<img class = center src='/static/experiments/go_nogo_deval/images/blue_triangle.png'></img>,32,850,test,blue_triangle,go2,32,34,0,,,,,,,-1,-1,1400,0,ITI,poldrack-single-stim,165,239180,0.0-6.0-105.0,go_nogo_deval,432,,<div></div>,32,1400,test,,,,,,,,,,,,-1,-1,500,0,fixation,poldrack-single-stim,166,239682,0.0-6.0-106.0,go_nogo_deval,432,,<div class = centerbox><div class = fixation>+</div></div>,none,500,test,,,,,,,,,,,,-1,-1,850,0,stim,poldrack-single-stim,167,240533,0.0-6.0-107.0,go_nogo_deval,432,,<img class = center src='/static/experiments/go_nogo_deval/images/red_rhombus.png'></img>,32,850,test,red_rhombus,nogo2,-1,35,0,,,,,,,-1,-1,1400,0,ITI,poldrack-single-stim,168,241935,0.0-6.0-108.0,go_nogo_deval,432,,<div></div>,32,1400,test,,,,,,,,,,,,-1,-1,500,0,fixation,poldrack-single-stim,169,242437,0.0-6.0-109.0,go_nogo_deval,432,,<div class = centerbox><div class = fixation>+</div></div>,none,500,test,,,,,,,,,,,,514,32,850,0,stim,poldrack-single-stim,170,243288,0.0-6.0-110.0,go_nogo_deval,432,,<img class = center src='/static/experiments/go_nogo_deval/images/blue_triangle.png'></img>,32,850,test,blue_triangle,go2,32,36,0,,,,,,,-1,-1,1400,0,ITI,poldrack-single-stim,171,244689,0.0-6.0-111.0,go_nogo_deval,432,,<div></div>,32,1400,test,,,,,,,,,,,,-1,-1,500,0,fixation,poldrack-single-stim,172,245191,0.0-6.0-112.0,go_nogo_deval,432,,<div class = centerbox><div class = fixation>+</div></div>,none,500,test,,,,,,,,,,,,594,32,850,0,stim,poldrack-single-stim,173,246043,0.0-6.0-113.0,go_nogo_deval,432,,<img class = center src='/static/experiments/go_nogo_deval/images/green_pentagon.png'></img>,32,850,test,green_pentagon,go1,32,37,0,,,,,,,-1,-1,1400,0,ITI,poldrack-single-stim,174,247445,0.0-6.0-114.0,go_nogo_deval,432,,<div></div>,32,1400,test,,,,,,,,,,,,-1,-1,500,0,fixation,poldrack-single-stim,175,247946,0.0-6.0-115.0,go_nogo_deval,432,,<div class = centerbox><div class = fixation>+</div></div>,none,500,test,,,,,,,,,,,,-1,-1,850,0,stim,poldrack-single-stim,176,248797,0.0-6.0-116.0,go_nogo_deval,432,,<img class = center src='/static/experiments/go_nogo_deval/images/green_pentagon.png'></img>,32,850,test,green_pentagon,go1,32,38,0,,,,,,,216,32,1400,0,ITI,poldrack-single-stim,177,250198,0.0-6.0-117.0,go_nogo_deval,432,,<div></div>,32,1400,test,,,,,,,,,,,,-1,-1,500,0,fixation,poldrack-single-stim,178,250700,0.0-6.0-118.0,go_nogo_deval,432,,<div class = centerbox><div class = fixation>+</div></div>,none,500,test,,,,,,,,,,,,576,32,850,0,stim,poldrack-single-stim,179,251552,0.0-6.0-119.0,go_nogo_deval,432,,<img class = center src='/static/experiments/go_nogo_deval/images/blue_triangle.png'></img>,32,850,test,blue_triangle,go2,32,39,0,,,,,,,-1,-1,1400,0,ITI,poldrack-single-stim,180,252953,0.0-6.0-120.0,go_nogo_deval,432,,<div></div>,32,1400,test,,,,,,,,,,,,-1,-1,500,0,fixation,poldrack-single-stim,181,253454,0.0-6.0-121.0,go_nogo_deval,432,,<div class = centerbox><div class = fixation>+</div></div>,none,500,test,,,,,,,,,,,,-1,-1,850,0,stim,poldrack-single-stim,182,254306,0.0-6.0-122.0,go_nogo_deval,432,,<img class = center src='/static/experiments/go_nogo_deval/images/purple_circle.png'></img>,32,850,test,purple_circle,nogo1,-1,40,0,,,,,,,-1,-1,1400,0,ITI,poldrack-single-stim,183,255708,0.0-6.0-123.0,go_nogo_deval,432,,<div></div>,32,1400,test,,,,,,,,,,,,-1,-1,500,0,fixation,poldrack-single-stim,184,256210,0.0-6.0-124.0,go_nogo_deval,432,,<div class = centerbox><div class = fixation>+</div></div>,none,500,test,,,,,,,,,,,,-1,-1,850,0,stim,poldrack-single-stim,185,257062,0.0-6.0-125.0,go_nogo_deval,432,,<img class = center src='/static/experiments/go_nogo_deval/images/red_rhombus.png'></img>,32,850,test,red_rhombus,nogo2,-1,41,0,,,,,,,-1,-1,1400,0,ITI,poldrack-single-stim,186,258464,0.0-6.0-126.0,go_nogo_deval,432,,<div></div>,32,1400,test,,,,,,,,,,,,-1,-1,500,0,fixation,poldrack-single-stim,187,258966,0.0-6.0-127.0,go_nogo_deval,432,,<div class = centerbox><div class = fixation>+</div></div>,none,500,test,,,,,,,,,,,,500,32,850,0,stim,poldrack-single-stim,188,259816,0.0-6.0-128.0,go_nogo_deval,432,,<img class = center src='/static/experiments/go_nogo_deval/images/blue_triangle.png'></img>,32,850,test,blue_triangle,go2,32,42,0,,,,,,,-1,-1,1400,0,ITI,poldrack-single-stim,189,261218,0.0-6.0-129.0,go_nogo_deval,432,,<div></div>,32,1400,test,,,,,,,,,,,,-1,-1,500,0,fixation,poldrack-single-stim,190,261719,0.0-6.0-130.0,go_nogo_deval,432,,<div class = centerbox><div class = fixation>+</div></div>,none,500,test,,,,,,,,,,,,492,32,850,0,stim,poldrack-single-stim,191,262571,0.0-6.0-131.0,go_nogo_deval,432,,<img class = center src='/static/experiments/go_nogo_deval/images/green_pentagon.png'></img>,32,850,test,green_pentagon,go1,32,43,0,,,,,,,-1,-1,1400,0,ITI,poldrack-single-stim,192,263972,0.0-6.0-132.0,go_nogo_deval,432,,<div></div>,32,1400,test,,,,,,,,,,,,-1,-1,500,0,fixation,poldrack-single-stim,193,264474,0.0-6.0-133.0,go_nogo_deval,432,,<div class = centerbox><div class = fixation>+</div></div>,none,500,test,,,,,,,,,,,,-1,-1,850,0,stim,poldrack-single-stim,194,265325,0.0-6.0-134.0,go_nogo_deval,432,,<img class = center src='/static/experiments/go_nogo_deval/images/red_rhombus.png'></img>,32,850,test,red_rhombus,nogo2,-1,44,0,,,,,,,-1,-1,1400,0,ITI,poldrack-single-stim,195,266727,0.0-6.0-135.0,go_nogo_deval,432,,<div></div>,32,1400,test,,,,,,,,,,,,-1,-1,500,0,fixation,poldrack-single-stim,196,267229,0.0-6.0-136.0,go_nogo_deval,432,,<div class = centerbox><div class = fixation>+</div></div>,none,500,test,,,,,,,,,,,,607,32,850,0,stim,poldrack-single-stim,197,268080,0.0-6.0-137.0,go_nogo_deval,432,,<img class = center src='/static/experiments/go_nogo_deval/images/green_pentagon.png'></img>,32,850,test,green_pentagon,go1,32,45,0,,,,,,,-1,-1,1400,0,ITI,poldrack-single-stim,198,269481,0.0-6.0-138.0,go_nogo_deval,432,,<div></div>,32,1400,test,,,,,,,,,,,,-1,-1,500,0,fixation,poldrack-single-stim,199,269983,0.0-6.0-139.0,go_nogo_deval,432,,<div class = centerbox><div class = fixation>+</div></div>,none,500,test,,,,,,,,,,,,542,32,850,0,stim,poldrack-single-stim,200,270835,0.0-6.0-140.0,go_nogo_deval,432,,<img class = center src='/static/experiments/go_nogo_deval/images/green_pentagon.png'></img>,32,850,test,green_pentagon,go1,32,46,0,,,,,,,-1,-1,1400,0,ITI,poldrack-single-stim,201,272236,0.0-6.0-141.0,go_nogo_deval,432,,<div></div>,32,1400,test,,,,,,,,,,,,-1,-1,500,0,fixation,poldrack-single-stim,202,272737,0.0-6.0-142.0,go_nogo_deval,432,,<div class = centerbox><div class = fixation>+</div></div>,none,500,test,,,,,,,,,,,,441,32,850,0,stim,poldrack-single-stim,203,273589,0.0-6.0-143.0,go_nogo_deval,432,,<img class = center src='/static/experiments/go_nogo_deval/images/blue_triangle.png'></img>,32,850,test,blue_triangle,go2,32,47,0,,,,,,,-1,-1,1400,0,ITI,poldrack-single-stim,204,274991,0.0-6.0-144.0,go_nogo_deval,432,,<div></div>,32,1400,test,,,,,,,,,,,,7850,13,7850,0,practice-no-stop-feedback,poldrack-single-stim,205,282844,0.0-6.1-0.1,go_nogo_deval,432,,"<div class = centerbox><p class = block-text><br>Please take this time to read your feedback and to take a short break! Press enter to continue</p><p class = block-text><strong>Average reaction time:  502 ms. Accuracy: 96%</strong></p><p class = block-text><strong>You have been responding too slowly, please respond to each shape (circle, triangle, rhombus, pentagon) as quickly and as accurately as possible.</strong></p></div>",13,7850,,,,,,,,,,,,,-1,-1,500,0,fixation,poldrack-single-stim,206,283346,0.0-6.1-1.1,go_nogo_deval,432,,<div class = centerbox><div class = fixation>+</div></div>,none,500,test,,,,,,,,,,,,442,32,850,0,stim,poldrack-single-stim,207,284198,0.0-6.1-2.1,go_nogo_deval,432,,<img class = center src='/static/experiments/go_nogo_deval/images/blue_triangle.png'></img>,32,850,test,blue_triangle,go2,32,0,1,,,,,,,-1,-1,1400,0,ITI,poldrack-single-stim,208,285600,0.0-6.1-3.1,go_nogo_deval,432,,<div></div>,32,1400,test,,,,,,,,,,,,-1,-1,500,0,fixation,poldrack-single-stim,209,286101,0.0-6.1-4.1,go_nogo_deval,432,,<div class = centerbox><div class = fixation>+</div></div>,none,500,test,,,,,,,,,,,,375,32,850,0,stim,poldrack-single-stim,210,286953,0.0-6.1-5.1,go_nogo_deval,432,,<img class = center src='/static/experiments/go_nogo_deval/images/blue_triangle.png'></img>,32,850,test,blue_triangle,go2,32,1,1,,,,,,,-1,-1,1400,0,ITI,poldrack-single-stim,211,288355,0.0-6.1-6.1,go_nogo_deval,432,,<div></div>,32,1400,test,,,,,,,,,,,,-1,-1,500,0,fixation,poldrack-single-stim,212,288857,0.0-6.1-7.1,go_nogo_deval,432,,<div class = centerbox><div class = fixation>+</div></div>,none,500,test,,,,,,,,,,,,354,32,850,0,stim,poldrack-single-stim,213,289708,0.0-6.1-8.1,go_nogo_deval,432,,<img class = center src='/static/experiments/go_nogo_deval/images/blue_triangle.png'></img>,32,850,test,blue_triangle,go2,32,2,1,,,,,,,-1,-1,1400,0,ITI,poldrack-single-stim,214,291109,0.0-6.1-9.1,go_nogo_deval,432,,<div></div>,32,1400,test,,,,,,,,,,,,-1,-1,500,0,fixation,poldrack-single-stim,215,291611,0.0-6.1-10.1,go_nogo_deval,432,,<div class = centerbox><div class = fixation>+</div></div>,none,500,test,,,,,,,,,,,,355,32,850,0,stim,poldrack-single-stim,216,292462,0.0-6.1-11.1,go_nogo_deval,432,,<img class = center src='/static/experiments/go_nogo_deval/images/blue_triangle.png'></img>,32,850,test,blue_triangle,go2,32,3,1,,,,,,,-1,-1,1400,0,ITI,poldrack-single-stim,217,293864,0.0-6.1-12.1,go_nogo_deval,432,,<div></div>,32,1400,test,,,,,,,,,,,,-1,-1,500,0,fixation,poldrack-single-stim,218,294366,0.0-6.1-13.1,go_nogo_deval,432,,<div class = centerbox><div class = fixation>+</div></div>,none,500,test,,,,,,,,,,,,527,32,850,0,stim,poldrack-single-stim,219,295217,0.0-6.1-14.1,go_nogo_deval,432,,<img class = center src='/static/experiments/go_nogo_deval/images/green_pentagon.png'></img>,32,850,test,green_pentagon,go1,32,4,1,,,,,,,-1,-1,1400,0,ITI,poldrack-single-stim,220,296618,0.0-6.1-15.1,go_nogo_deval,432,,<div></div>,32,1400,test,,,,,,,,,,,,-1,-1,500,0,fixation,poldrack-single-stim,221,297120,0.0-6.1-16.1,go_nogo_deval,432,,<div class = centerbox><div class = fixation>+</div></div>,none,500,test,,,,,,,,,,,,371,32,850,0,stim,poldrack-single-stim,222,297971,0.0-6.1-17.1,go_nogo_deval,432,,<img class = center src='/static/experiments/go_nogo_deval/images/blue_triangle.png'></img>,32,850,test,blue_triangle,go2,32,5,1,,,,,,,-1,-1,1400,0,ITI,poldrack-single-stim,223,299372,0.0-6.1-18.1,go_nogo_deval,432,,<div></div>,32,1400,test,,,,,,,,,,,,-1,-1,500,0,fixation,poldrack-single-stim,224,299874,0.0-6.1-19.1,go_nogo_deval,432,,<div class = centerbox><div class = fixation>+</div></div>,none,500,test,,,,,,,,,,,,361,32,850,0,stim,poldrack-single-stim,225,300726,0.0-6.1-20.1,go_nogo_deval,432,,<img class = center src='/static/experiments/go_nogo_deval/images/green_pentagon.png'></img>,32,850,test,green_pentagon,go1,32,6,1,,,,,,,-1,-1,1400,0,ITI,poldrack-single-stim,226,302127,0.0-6.1-21.1,go_nogo_deval,432,,<div></div>,32,1400,test,,,,,,,,,,,,-1,-1,500,0,fixation,poldrack-single-stim,227,302629,0.0-6.1-22.1,go_nogo_deval,432,,<div class = centerbox><div class = fixation>+</div></div>,none,500,test,,,,,,,,,,,,-1,-1,850,0,stim,poldrack-single-stim,228,303481,0.0-6.1-23.1,go_nogo_deval,432,,<img class = center src='/static/experiments/go_nogo_deval/images/purple_circle.png'></img>,32,850,test,purple_circle,nogo1,-1,7,1,,,,,,,-1,-1,1400,0,ITI,poldrack-single-stim,229,304882,0.0-6.1-24.1,go_nogo_deval,432,,<div></div>,32,1400,test,,,,,,,,,,,,-1,-1,500,0,fixation,poldrack-single-stim,230,305383,0.0-6.1-25.1,go_nogo_deval,432,,<div class = centerbox><div class = fixation>+</div></div>,none,500,test,,,,,,,,,,,,546,32,850,0,stim,poldrack-single-stim,231,306235,0.0-6.1-26.1,go_nogo_deval,432,,<img class = center src='/static/experiments/go_nogo_deval/images/green_pentagon.png'></img>,32,850,test,green_pentagon,go1,32,8,1,,,,,,,-1,-1,1400,0,ITI,poldrack-single-stim,232,307636,0.0-6.1-27.1,go_nogo_deval,432,,<div></div>,32,1400,test,,,,,,,,,,,,-1,-1,500,0,fixation,poldrack-single-stim,233,308137,0.0-6.1-28.1,go_nogo_deval,432,,<div class = centerbox><div class = fixation>+</div></div>,none,500,test,,,,,,,,,,,,400,32,850,0,stim,poldrack-single-stim,234,308988,0.0-6.1-29.1,go_nogo_deval,432,,<img class = center src='/static/experiments/go_nogo_deval/images/blue_triangle.png'></img>,32,850,test,blue_triangle,go2,32,9,1,,,,,,,-1,-1,1400,0,ITI,poldrack-single-stim,235,310389,0.0-6.1-30.1,go_nogo_deval,432,,<div></div>,32,1400,test,,,,,,,,,,,,-1,-1,500,0,fixation,poldrack-single-stim,236,310891,0.0-6.1-31.1,go_nogo_deval,432,,<div class = centerbox><div class = fixation>+</div></div>,none,500,test,,,,,,,,,,,,415,32,850,0,stim,poldrack-single-stim,237,311743,0.0-6.1-32.1,go_nogo_deval,432,,<img class = center src='/static/experiments/go_nogo_deval/images/green_pentagon.png'></img>,32,850,test,green_pentagon,go1,32,10,1,,,,,,,-1,-1,1400,0,ITI,poldrack-single-stim,238,313145,0.0-6.1-33.1,go_nogo_deval,432,,<div></div>,32,1400,test,,,,,,,,,,,,-1,-1,500,0,fixation,poldrack-single-stim,239,313646,0.0-6.1-34.1,go_nogo_deval,432,,<div class = centerbox><div class = fixation>+</div></div>,none,500,test,,,,,,,,,,,,550,32,850,0,stim,poldrack-single-stim,240,314498,0.0-6.1-35.1,go_nogo_deval,432,,<img class = center src='/static/experiments/go_nogo_deval/images/green_pentagon.png'></img>,32,850,test,green_pentagon,go1,32,11,1,,,,,,,-1,-1,1400,0,ITI,poldrack-single-stim,241,315900,0.0-6.1-36.1,go_nogo_deval,432,,<div></div>,32,1400,test,,,,,,,,,,,,-1,-1,500,0,fixation,poldrack-single-stim,242,316401,0.0-6.1-37.1,go_nogo_deval,432,,<div class = centerbox><div class = fixation>+</div></div>,none,500,test,,,,,,,,,,,,373,32,850,0,stim,poldrack-single-stim,243,317253,0.0-6.1-38.1,go_nogo_deval,432,,<img class = center src='/static/experiments/go_nogo_deval/images/green_pentagon.png'></img>,32,850,test,green_pentagon,go1,32,12,1,,,,,,,-1,-1,1400,0,ITI,poldrack-single-stim,244,318654,0.0-6.1-39.1,go_nogo_deval,432,,<div></div>,32,1400,test,,,,,,,,,,,,-1,-1,500,0,fixation,poldrack-single-stim,245,319156,0.0-6.1-40.1,go_nogo_deval,432,,<div class = centerbox><div class = fixation>+</div></div>,none,500,test,,,,,,,,,,,,475,32,850,0,stim,poldrack-single-stim,246,320008,0.0-6.1-41.1,go_nogo_deval,432,,<img class = center src='/static/experiments/go_nogo_deval/images/blue_triangle.png'></img>,32,850,test,blue_triangle,go2,32,13,1,,,,,,,-1,-1,1400,0,ITI,poldrack-single-stim,247,321409,0.0-6.1-42.1,go_nogo_deval,432,,<div></div>,32,1400,test,,,,,,,,,,,,-1,-1,500,0,fixation,poldrack-single-stim,248,321911,0.0-6.1-43.1,go_nogo_deval,432,,<div class = centerbox><div class = fixation>+</div></div>,none,500,test,,,,,,,,,,,,-1,-1,850,0,stim,poldrack-single-stim,249,322763,0.0-6.1-44.1,go_nogo_deval,432,,<img class = center src='/static/experiments/go_nogo_deval/images/red_rhombus.png'></img>,32,850,test,red_rhombus,nogo2,-1,14,1,,,,,,,-1,-1,1400,0,ITI,poldrack-single-stim,250,324164,0.0-6.1-45.1,go_nogo_deval,432,,<div></div>,32,1400,test,,,,,,,,,,,,-1,-1,500,0,fixation,poldrack-single-stim,251,324666,0.0-6.1-46.1,go_nogo_deval,432,,<div class = centerbox><div class = fixation>+</div></div>,none,500,test,,,,,,,,,,,,409,32,850,0,stim,poldrack-single-stim,252,325518,0.0-6.1-47.1,go_nogo_deval,432,,<img class = center src='/static/experiments/go_nogo_deval/images/blue_triangle.png'></img>,32,850,test,blue_triangle,go2,32,15,1,,,,,,,-1,-1,1400,0,ITI,poldrack-single-stim,253,326919,0.0-6.1-48.1,go_nogo_deval,432,,<div></div>,32,1400,test,,,,,,,,,,,,-1,-1,500,0,fixation,poldrack-single-stim,254,327421,0.0-6.1-49.1,go_nogo_deval,432,,<div class = centerbox><div class = fixation>+</div></div>,none,500,test,,,,,,,,,,,,322,32,850,0,stim,poldrack-single-stim,255,328273,0.0-6.1-50.1,go_nogo_deval,432,,<img class = center src='/static/experiments/go_nogo_deval/images/blue_triangle.png'></img>,32,850,test,blue_triangle,go2,32,16,1,,,,,,,-1,-1,1400,0,ITI,poldrack-single-stim,256,329674,0.0-6.1-51.1,go_nogo_deval,432,,<div></div>,32,1400,test,,,,,,,,,,,,-1,-1,500,0,fixation,poldrack-single-stim,257,330175,0.0-6.1-52.1,go_nogo_deval,432,,<div class = centerbox><div class = fixation>+</div></div>,none,500,test,,,,,,,,,,,,-1,-1,850,0,stim,poldrack-single-stim,258,331026,0.0-6.1-53.1,go_nogo_deval,432,,<img class = center src='/static/experiments/go_nogo_deval/images/red_rhombus.png'></img>,32,850,test,red_rhombus,nogo2,-1,17,1,,,,,,,-1,-1,1400,0,ITI,poldrack-single-stim,259,332428,0.0-6.1-54.1,go_nogo_deval,432,,<div></div>,32,1400,test,,,,,,,,,,,,-1,-1,500,0,fixation,poldrack-single-stim,260,332929,0.0-6.1-55.1,go_nogo_deval,432,,<div class = centerbox><div class = fixation>+</div></div>,none,500,test,,,,,,,,,,,,482,32,850,0,stim,poldrack-single-stim,261,333781,0.0-6.1-56.1,go_nogo_deval,432,,<img class = center src='/static/experiments/go_nogo_deval/images/blue_triangle.png'></img>,32,850,test,blue_triangle,go2,32,18,1,,,,,,,-1,-1,1400,0,ITI,poldrack-single-stim,262,335183,0.0-6.1-57.1,go_nogo_deval,432,,<div></div>,32,1400,test,,,,,,,,,,,,-1,-1,500,0,fixation,poldrack-single-stim,263,335684,0.0-6.1-58.1,go_nogo_deval,432,,<div class = centerbox><div class = fixation>+</div></div>,none,500,test,,,,,,,,,,,,-1,-1,850,0,stim,poldrack-single-stim,264,336536,0.0-6.1-59.1,go_nogo_deval,432,,<img class = center src='/static/experiments/go_nogo_deval/images/purple_circle.png'></img>,32,850,test,purple_circle,nogo1,-1,19,1,,,,,,,-1,-1,1400,0,ITI,poldrack-single-stim,265,337938,0.0-6.1-60.1,go_nogo_deval,432,,<div></div>,32,1400,test,,,,,,,,,,,,-1,-1,500,0,fixation,poldrack-single-stim,266,338439,0.0-6.1-61.1,go_nogo_deval,432,,<div class = centerbox><div class = fixation>+</div></div>,none,500,test,,,,,,,,,,,,487,32,850,0,stim,poldrack-single-stim,267,339290,0.0-6.1-62.1,go_nogo_deval,432,,<img class = center src='/static/experiments/go_nogo_deval/images/green_pentagon.png'></img>,32,850,test,green_pentagon,go1,32,20,1,,,,,,,-1,-1,1400,0,ITI,poldrack-single-stim,268,340692,0.0-6.1-63.1,go_nogo_deval,432,,<div></div>,32,1400,test,,,,,,,,,,,,-1,-1,500,0,fixation,poldrack-single-stim,269,341194,0.0-6.1-64.1,go_nogo_deval,432,,<div class = centerbox><div class = fixation>+</div></div>,none,500,test,,,,,,,,,,,,487,32,850,0,stim,poldrack-single-stim,270,342045,0.0-6.1-65.1,go_nogo_deval,432,,<img class = center src='/static/experiments/go_nogo_deval/images/green_pentagon.png'></img>,32,850,test,green_pentagon,go1,32,21,1,,,,,,,-1,-1,1400,0,ITI,poldrack-single-stim,271,343447,0.0-6.1-66.1,go_nogo_deval,432,,<div></div>,32,1400,test,,,,,,,,,,,,-1,-1,500,0,fixation,poldrack-single-stim,272,343949,0.0-6.1-67.1,go_nogo_deval,432,,<div class = centerbox><div class = fixation>+</div></div>,none,500,test,,,,,,,,,,,,365,32,850,0,stim,poldrack-single-stim,273,344801,0.0-6.1-68.1,go_nogo_deval,432,,<img class = center src='/static/experiments/go_nogo_deval/images/blue_triangle.png'></img>,32,850,test,blue_triangle,go2,32,22,1,,,,,,,-1,-1,1400,0,ITI,poldrack-single-stim,274,346202,0.0-6.1-69.1,go_nogo_deval,432,,<div></div>,32,1400,test,,,,,,,,,,,,-1,-1,500,0,fixation,poldrack-single-stim,275,346704,0.0-6.1-70.1,go_nogo_deval,432,,<div class = centerbox><div class = fixation>+</div></div>,none,500,test,,,,,,,,,,,,-1,-1,850,0,stim,poldrack-single-stim,276,347556,0.0-6.1-71.1,go_nogo_deval,432,,<img class = center src='/static/experiments/go_nogo_deval/images/purple_circle.png'></img>,32,850,test,purple_circle,nogo1,-1,23,1,,,,,,,-1,-1,1400,0,ITI,poldrack-single-stim,277,348957,0.0-6.1-72.1,go_nogo_deval,432,,<div></div>,32,1400,test,,,,,,,,,,,,-1,-1,500,0,fixation,poldrack-single-stim,278,349459,0.0-6.1-73.1,go_nogo_deval,432,,<div class = centerbox><div class = fixation>+</div></div>,none,500,test,,,,,,,,,,,,-1,-1,850,0,stim,poldrack-single-stim,279,350310,0.0-6.1-74.1,go_nogo_deval,432,,<img class = center src='/static/experiments/go_nogo_deval/images/red_rhombus.png'></img>,32,850,test,red_rhombus,nogo2,-1,24,1,,,,,,,-1,-1,1400,0,ITI,poldrack-single-stim,280,351712,0.0-6.1-75.1,go_nogo_deval,432,,<div></div>,32,1400,test,,,,,,,,,,,,-1,-1,500,0,fixation,poldrack-single-stim,281,352214,0.0-6.1-76.1,go_nogo_deval,432,,<div class = centerbox><div class = fixation>+</div></div>,none,500,test,,,,,,,,,,,,-1,-1,850,0,stim,poldrack-single-stim,282,353066,0.0-6.1-77.1,go_nogo_deval,432,,<img class = center src='/static/experiments/go_nogo_deval/images/purple_circle.png'></img>,32,850,test,purple_circle,nogo1,-1,25,1,,,,,,,-1,-1,1400,0,ITI,poldrack-single-stim,283,354468,0.0-6.1-78.1,go_nogo_deval,432,,<div></div>,32,1400,test,,,,,,,,,,,,-1,-1,500,0,fixation,poldrack-single-stim,284,354969,0.0-6.1-79.1,go_nogo_deval,432,,<div class = centerbox><div class = fixation>+</div></div>,none,500,test,,,,,,,,,,,,382,32,850,0,stim,poldrack-single-stim,285,355821,0.0-6.1-80.1,go_nogo_deval,432,,<img class = center src='/static/experiments/go_nogo_deval/images/green_pentagon.png'></img>,32,850,test,green_pentagon,go1,32,26,1,,,,,,,-1,-1,1400,0,ITI,poldrack-single-stim,286,357222,0.0-6.1-81.1,go_nogo_deval,432,,<div></div>,32,1400,test,,,,,,,,,,,,-1,-1,500,0,fixation,poldrack-single-stim,287,357724,0.0-6.1-82.1,go_nogo_deval,432,,<div class = centerbox><div class = fixation>+</div></div>,none,500,test,,,,,,,,,,,,-1,-1,850,0,stim,poldrack-single-stim,288,358576,0.0-6.1-83.1,go_nogo_deval,432,,<img class = center src='/static/experiments/go_nogo_deval/images/red_rhombus.png'></img>,32,850,test,red_rhombus,nogo2,-1,27,1,,,,,,,-1,-1,1400,0,ITI,poldrack-single-stim,289,359978,0.0-6.1-84.1,go_nogo_deval,432,,<div></div>,32,1400,test,,,,,,,,,,,,-1,-1,500,0,fixation,poldrack-single-stim,290,360480,0.0-6.1-85.1,go_nogo_deval,432,,<div class = centerbox><div class = fixation>+</div></div>,none,500,test,,,,,,,,,,,,416,32,850,0,stim,poldrack-single-stim,291,361332,0.0-6.1-86.1,go_nogo_deval,432,,<img class = center src='/static/experiments/go_nogo_deval/images/blue_triangle.png'></img>,32,850,test,blue_triangle,go2,32,28,1,,,,,,,-1,-1,1400,0,ITI,poldrack-single-stim,292,362734,0.0-6.1-87.1,go_nogo_deval,432,,<div></div>,32,1400,test,,,,,,,,,,,,-1,-1,500,0,fixation,poldrack-single-stim,293,363235,0.0-6.1-88.1,go_nogo_deval,432,,<div class = centerbox><div class = fixation>+</div></div>,none,500,test,,,,,,,,,,,,-1,-1,850,0,stim,poldrack-single-stim,294,364087,0.0-6.1-89.1,go_nogo_deval,432,,<img class = center src='/static/experiments/go_nogo_deval/images/red_rhombus.png'></img>,32,850,test,red_rhombus,nogo2,-1,29,1,,,,,,,-1,-1,1400,0,ITI,poldrack-single-stim,295,365488,0.0-6.1-90.1,go_nogo_deval,432,,<div></div>,32,1400,test,,,,,,,,,,,,-1,-1,500,0,fixation,poldrack-single-stim,296,365990,0.0-6.1-91.1,go_nogo_deval,432,,<div class = centerbox><div class = fixation>+</div></div>,none,500,test,,,,,,,,,,,,386,32,850,0,stim,poldrack-single-stim,297,366842,0.0-6.1-92.1,go_nogo_deval,432,,<img class = center src='/static/experiments/go_nogo_deval/images/green_pentagon.png'></img>,32,850,test,green_pentagon,go1,32,30,1,,,,,,,-1,-1,1400,0,ITI,poldrack-single-stim,298,368244,0.0-6.1-93.1,go_nogo_deval,432,,<div></div>,32,1400,test,,,,,,,,,,,,-1,-1,500,0,fixation,poldrack-single-stim,299,368745,0.0-6.1-94.1,go_nogo_deval,432,,<div class = centerbox><div class = fixation>+</div></div>,none,500,test,,,,,,,,,,,,329,32,850,0,stim,poldrack-single-stim,300,369597,0.0-6.1-95.1,go_nogo_deval,432,,<img class = center src='/static/experiments/go_nogo_deval/images/blue_triangle.png'></img>,32,850,test,blue_triangle,go2,32,31,1,,,,,,,-1,-1,1400,0,ITI,poldrack-single-stim,301,370999,0.0-6.1-96.1,go_nogo_deval,432,,<div></div>,32,1400,test,,,,,,,,,,,,-1,-1,500,0,fixation,poldrack-single-stim,302,371500,0.0-6.1-97.1,go_nogo_deval,432,,<div class = centerbox><div class = fixation>+</div></div>,none,500,test,,,,,,,,,,,,342,32,850,0,stim,poldrack-single-stim,303,372352,0.0-6.1-98.1,go_nogo_deval,432,,<img class = center src='/static/experiments/go_nogo_deval/images/blue_triangle.png'></img>,32,850,test,blue_triangle,go2,32,32,1,,,,,,,-1,-1,1400,0,ITI,poldrack-single-stim,304,373754,0.0-6.1-99.1,go_nogo_deval,432,,<div></div>,32,1400,test,,,,,,,,,,,,-1,-1,500,0,fixation,poldrack-single-stim,305,374255,0.0-6.1-100.1,go_nogo_deval,432,,<div class = centerbox><div class = fixation>+</div></div>,none,500,test,,,,,,,,,,,,-1,-1,850,0,stim,poldrack-single-stim,306,375107,0.0-6.1-101.1,go_nogo_deval,432,,<img class = center src='/static/experiments/go_nogo_deval/images/purple_circle.png'></img>,32,850,test,purple_circle,nogo1,-1,33,1,,,,,,,-1,-1,1400,0,ITI,poldrack-single-stim,307,376509,0.0-6.1-102.1,go_nogo_deval,432,,<div></div>,32,1400,test,,,,,,,,,,,,-1,-1,500,0,fixation,poldrack-single-stim,308,377010,0.0-6.1-103.1,go_nogo_deval,432,,<div class = centerbox><div class = fixation>+</div></div>,none,500,test,,,,,,,,,,,,502,32,850,0,stim,poldrack-single-stim,309,377861,0.0-6.1-104.1,go_nogo_deval,432,,<img class = center src='/static/experiments/go_nogo_deval/images/blue_triangle.png'></img>,32,850,test,blue_triangle,go2,32,34,1,,,,,,,-1,-1,1400,0,ITI,poldrack-single-stim,310,379263,0.0-6.1-105.1,go_nogo_deval,432,,<div></div>,32,1400,test,,,,,,,,,,,,-1,-1,500,0,fixation,poldrack-single-stim,311,379765,0.0-6.1-106.1,go_nogo_deval,432,,<div class = centerbox><div class = fixation>+</div></div>,none,500,test,,,,,,,,,,,,-1,-1,850,0,stim,poldrack-single-stim,312,380616,0.0-6.1-107.1,go_nogo_deval,432,,<img class = center src='/static/experiments/go_nogo_deval/images/red_rhombus.png'></img>,32,850,test,red_rhombus,nogo2,-1,35,1,,,,,,,-1,-1,1400,0,ITI,poldrack-single-stim,313,382017,0.0-6.1-108.1,go_nogo_deval,432,,<div></div>,32,1400,test,,,,,,,,,,,,-1,-1,500,0,fixation,poldrack-single-stim,314,382519,0.0-6.1-109.1,go_nogo_deval,432,,<div class = centerbox><div class = fixation>+</div></div>,none,500,test,,,,,,,,,,,,383,32,850,0,stim,poldrack-single-stim,315,383370,0.0-6.1-110.1,go_nogo_deval,432,,<img class = center src='/static/experiments/go_nogo_deval/images/green_pentagon.png'></img>,32,850,test,green_pentagon,go1,32,36,1,,,,,,,-1,-1,1400,0,ITI,poldrack-single-stim,316,384772,0.0-6.1-111.1,go_nogo_deval,432,,<div></div>,32,1400,test,,,,,,,,,,,,-1,-1,500,0,fixation,poldrack-single-stim,317,385273,0.0-6.1-112.1,go_nogo_deval,432,,<div class = centerbox><div class = fixation>+</div></div>,none,500,test,,,,,,,,,,,,-1,-1,850,0,stim,poldrack-single-stim,318,386125,0.0-6.1-113.1,go_nogo_deval,432,,<img class = center src='/static/experiments/go_nogo_deval/images/purple_circle.png'></img>,32,850,test,purple_circle,nogo1,-1,37,1,,,,,,,-1,-1,1400,0,ITI,poldrack-single-stim,319,387526,0.0-6.1-114.1,go_nogo_deval,432,,<div></div>,32,1400,test,,,,,,,,,,,,-1,-1,500,0,fixation,poldrack-single-stim,320,388028,0.0-6.1-115.1,go_nogo_deval,432,,<div class = centerbox><div class = fixation>+</div></div>,none,500,test,,,,,,,,,,,,375,32,850,0,stim,poldrack-single-stim,321,388879,0.0-6.1-116.1,go_nogo_deval,432,,<img class = center src='/static/experiments/go_nogo_deval/images/green_pentagon.png'></img>,32,850,test,green_pentagon,go1,32,38,1,,,,,,,-1,-1,1400,0,ITI,poldrack-single-stim,322,390281,0.0-6.1-117.1,go_nogo_deval,432,,<div></div>,32,1400,test,,,,,,,,,,,,-1,-1,500,0,fixation,poldrack-single-stim,323,390782,0.0-6.1-118.1,go_nogo_deval,432,,<div class = centerbox><div class = fixation>+</div></div>,none,500,test,,,,,,,,,,,,-1,-1,850,0,stim,poldrack-single-stim,324,391634,0.0-6.1-119.1,go_nogo_deval,432,,<img class = center src='/static/experiments/go_nogo_deval/images/red_rhombus.png'></img>,32,850,test,red_rhombus,nogo2,-1,39,1,,,,,,,-1,-1,1400,0,ITI,poldrack-single-stim,325,393035,0.0-6.1-120.1,go_nogo_deval,432,,<div></div>,32,1400,test,,,,,,,,,,,,-1,-1,500,0,fixation,poldrack-single-stim,326,393536,0.0-6.1-121.1,go_nogo_deval,432,,<div class = centerbox><div class = fixation>+</div></div>,none,500,test,,,,,,,,,,,,-1,-1,850,0,stim,poldrack-single-stim,327,394387,0.0-6.1-122.1,go_nogo_deval,432,,<img class = center src='/static/experiments/go_nogo_deval/images/red_rhombus.png'></img>,32,850,test,red_rhombus,nogo2,-1,40,1,,,,,,,383,32,1400,0,ITI,poldrack-single-stim,328,395789,0.0-6.1-123.1,go_nogo_deval,432,,<div></div>,32,1400,test,,,,,,,,,,,,-1,-1,500,0,fixation,poldrack-single-stim,329,396291,0.0-6.1-124.1,go_nogo_deval,432,,<div class = centerbox><div class = fixation>+</div></div>,none,500,test,,,,,,,,,,,,-1,-1,850,0,stim,poldrack-single-stim,330,397143,0.0-6.1-125.1,go_nogo_deval,432,,<img class = center src='/static/experiments/go_nogo_deval/images/purple_circle.png'></img>,32,850,test,purple_circle,nogo1,-1,41,1,,,,,,,-1,-1,1400,0,ITI,poldrack-single-stim,331,398545,0.0-6.1-126.1,go_nogo_deval,432,,<div></div>,32,1400,test,,,,,,,,,,,,-1,-1,500,0,fixation,poldrack-single-stim,332,399046,0.0-6.1-127.1,go_nogo_deval,432,,<div class = centerbox><div class = fixation>+</div></div>,none,500,test,,,,,,,,,,,,516,32,850,0,stim,poldrack-single-stim,333,399898,0.0-6.1-128.1,go_nogo_deval,432,,<img class = center src='/static/experiments/go_nogo_deval/images/blue_triangle.png'></img>,32,850,test,blue_triangle,go2,32,42,1,,,,,,,-1,-1,1400,0,ITI,poldrack-single-stim,334,401300,0.0-6.1-129.1,go_nogo_deval,432,,<div></div>,32,1400,test,,,,,,,,,,,,-1,-1,500,0,fixation,poldrack-single-stim,335,401803,0.0-6.1-130.1,go_nogo_deval,432,,<div class = centerbox><div class = fixation>+</div></div>,none,500,test,,,,,,,,,,,,472,32,850,0,stim,poldrack-single-stim,336,402655,0.0-6.1-131.1,go_nogo_deval,432,,<img class = center src='/static/experiments/go_nogo_deval/images/green_pentagon.png'></img>,32,850,test,green_pentagon,go1,32,43,1,,,,,,,-1,-1,1400,0,ITI,poldrack-single-stim,337,404056,0.0-6.1-132.1,go_nogo_deval,432,,<div></div>,32,1400,test,,,,,,,,,,,,-1,-1,500,0,fixation,poldrack-single-stim,338,404557,0.0-6.1-133.1,go_nogo_deval,432,,<div class = centerbox><div class = fixation>+</div></div>,none,500,test,,,,,,,,,,,,440,32,850,0,stim,poldrack-single-stim,339,405409,0.0-6.1-134.1,go_nogo_deval,432,,<img class = center src='/static/experiments/go_nogo_deval/images/green_pentagon.png'></img>,32,850,test,green_pentagon,go1,32,44,1,,,,,,,-1,-1,1400,0,ITI,poldrack-single-stim,340,406810,0.0-6.1-135.1,go_nogo_deval,432,,<div></div>,32,1400,test,,,,,,,,,,,,-1,-1,500,0,fixation,poldrack-single-stim,341,407311,0.0-6.1-136.1,go_nogo_deval,432,,<div class = centerbox><div class = fixation>+</div></div>,none,500,test,,,,,,,,,,,,441,32,850,0,stim,poldrack-single-stim,342,408162,0.0-6.1-137.1,go_nogo_deval,432,,<img class = center src='/static/experiments/go_nogo_deval/images/green_pentagon.png'></img>,32,850,test,green_pentagon,go1,32,45,1,,,,,,,-1,-1,1400,0,ITI,poldrack-single-stim,343,409564,0.0-6.1-138.1,go_nogo_deval,432,,<div></div>,32,1400,test,,,,,,,,,,,,-1,-1,500,0,fixation,poldrack-single-stim,344,410066,0.0-6.1-139.1,go_nogo_deval,432,,<div class = centerbox><div class = fixation>+</div></div>,none,500,test,,,,,,,,,,,,-1,-1,850,0,stim,poldrack-single-stim,345,410918,0.0-6.1-140.1,go_nogo_deval,432,,<img class = center src='/static/experiments/go_nogo_deval/images/purple_circle.png'></img>,32,850,test,purple_circle,nogo1,-1,46,1,,,,,,,-1,-1,1400,0,ITI,poldrack-single-stim,346,412318,0.0-6.1-141.1,go_nogo_deval,432,,<div></div>,32,1400,test,,,,,,,,,,,,-1,-1,500,0,fixation,poldrack-single-stim,347,412820,0.0-6.1-142.1,go_nogo_deval,432,,<div class = centerbox><div class = fixation>+</div></div>,none,500,test,,,,,,,,,,,,412,32,850,0,stim,poldrack-single-stim,348,413671,0.0-6.1-143.1,go_nogo_deval,432,,<img class = center src='/static/experiments/go_nogo_deval/images/green_pentagon.png'></img>,32,850,test,green_pentagon,go1,32,47,1,,,,,,,-1,-1,1400,0,ITI,poldrack-single-stim,349,415072,0.0-6.1-144.1,go_nogo_deval,432,,<div></div>,32,1400,test,,,,,,,,,,,,4176,13,4176,0,practice-no-stop-feedback,poldrack-single-stim,350,419251,0.0-6.2-0.2,go_nogo_deval,432,,<div class = centerbox><p class = block-text><br>Please take this time to read your feedback and to take a short break! Press enter to continue</p><p class = block-text><strong>Average reaction time:  422 ms. Accuracy: 100%</strong></p></div>,13,4176,,,,,,,,,,,,,-1,-1,500,0,fixation,poldrack-single-stim,351,419754,0.0-6.2-1.2,go_nogo_deval,432,,<div class = centerbox><div class = fixation>+</div></div>,none,500,test,,,,,,,,,,,,475,32,850,0,stim,poldrack-single-stim,352,420605,0.0-6.2-2.2,go_nogo_deval,432,,<img class = center src='/static/experiments/go_nogo_deval/images/blue_triangle.png'></img>,32,850,test,blue_triangle,go2,32,0,2,,,,,,,-1,-1,1400,0,ITI,poldrack-single-stim,353,422006,0.0-6.2-3.2,go_nogo_deval,432,,<div></div>,32,1400,test,,,,,,,,,,,,-1,-1,500,0,fixation,poldrack-single-stim,354,422508,0.0-6.2-4.2,go_nogo_deval,432,,<div class = centerbox><div class = fixation>+</div></div>,none,500,test,,,,,,,,,,,,-1,-1,850,0,stim,poldrack-single-stim,355,423359,0.0-6.2-5.2,go_nogo_deval,432,,<img class = center src='/static/experiments/go_nogo_deval/images/red_rhombus.png'></img>,32,850,test,red_rhombus,nogo2,-1,1,2,,,,,,,-1,-1,1400,0,ITI,poldrack-single-stim,356,424760,0.0-6.2-6.2,go_nogo_deval,432,,<div></div>,32,1400,test,,,,,,,,,,,,-1,-1,500,0,fixation,poldrack-single-stim,357,425262,0.0-6.2-7.2,go_nogo_deval,432,,<div class = centerbox><div class = fixation>+</div></div>,none,500,test,,,,,,,,,,,,367,32,850,0,stim,poldrack-single-stim,358,426114,0.0-6.2-8.2,go_nogo_deval,432,,<img class = center src='/static/experiments/go_nogo_deval/images/green_pentagon.png'></img>,32,850,test,green_pentagon,go1,32,2,2,,,,,,,-1,-1,1400,0,ITI,poldrack-single-stim,359,427515,0.0-6.2-9.2,go_nogo_deval,432,,<div></div>,32,1400,test,,,,,,,,,,,,-1,-1,500,0,fixation,poldrack-single-stim,360,428017,0.0-6.2-10.2,go_nogo_deval,432,,<div class = centerbox><div class = fixation>+</div></div>,none,500,test,,,,,,,,,,,,369,32,850,0,stim,poldrack-single-stim,361,428868,0.0-6.2-11.2,go_nogo_deval,432,,<img class = center src='/static/experiments/go_nogo_deval/images/blue_triangle.png'></img>,32,850,test,blue_triangle,go2,32,3,2,,,,,,,-1,-1,1400,0,ITI,poldrack-single-stim,362,430269,0.0-6.2-12.2,go_nogo_deval,432,,<div></div>,32,1400,test,,,,,,,,,,,,-1,-1,500,0,fixation,poldrack-single-stim,363,430771,0.0-6.2-13.2,go_nogo_deval,432,,<div class = centerbox><div class = fixation>+</div></div>,none,500,test,,,,,,,,,,,,-1,-1,850,0,stim,poldrack-single-stim,364,431623,0.0-6.2-14.2,go_nogo_deval,432,,<img class = center src='/static/experiments/go_nogo_deval/images/red_rhombus.png'></img>,32,850,test,red_rhombus,nogo2,-1,4,2,,,,,,,-1,-1,1400,0,ITI,poldrack-single-stim,365,433024,0.0-6.2-15.2,go_nogo_deval,432,,<div></div>,32,1400,test,,,,,,,,,,,,-1,-1,500,0,fixation,poldrack-single-stim,366,433526,0.0-6.2-16.2,go_nogo_deval,432,,<div class = centerbox><div class = fixation>+</div></div>,none,500,test,,,,,,,,,,,,406,32,850,0,stim,poldrack-single-stim,367,434377,0.0-6.2-17.2,go_nogo_deval,432,,<img class = center src='/static/experiments/go_nogo_deval/images/blue_triangle.png'></img>,32,850,test,blue_triangle,go2,32,5,2,,,,,,,-1,-1,1400,0,ITI,poldrack-single-stim,368,435779,0.0-6.2-18.2,go_nogo_deval,432,,<div></div>,32,1400,test,,,,,,,,,,,,-1,-1,500,0,fixation,poldrack-single-stim,369,436280,0.0-6.2-19.2,go_nogo_deval,432,,<div class = centerbox><div class = fixation>+</div></div>,none,500,test,,,,,,,,,,,,364,32,850,0,stim,poldrack-single-stim,370,437132,0.0-6.2-20.2,go_nogo_deval,432,,<img class = center src='/static/experiments/go_nogo_deval/images/green_pentagon.png'></img>,32,850,test,green_pentagon,go1,32,6,2,,,,,,,-1,-1,1400,0,ITI,poldrack-single-stim,371,438534,0.0-6.2-21.2,go_nogo_deval,432,,<div></div>,32,1400,test,,,,,,,,,,,,-1,-1,500,0,fixation,poldrack-single-stim,372,439036,0.0-6.2-22.2,go_nogo_deval,432,,<div class = centerbox><div class = fixation>+</div></div>,none,500,test,,,,,,,,,,,,397,32,850,0,stim,poldrack-single-stim,373,439887,0.0-6.2-23.2,go_nogo_deval,432,,<img class = center src='/static/experiments/go_nogo_deval/images/blue_triangle.png'></img>,32,850,test,blue_triangle,go2,32,7,2,,,,,,,-1,-1,1400,0,ITI,poldrack-single-stim,374,441289,0.0-6.2-24.2,go_nogo_deval,432,,<div></div>,32,1400,test,,,,,,,,,,,,-1,-1,500,0,fixation,poldrack-single-stim,375,441790,0.0-6.2-25.2,go_nogo_deval,432,,<div class = centerbox><div class = fixation>+</div></div>,none,500,test,,,,,,,,,,,,535,32,850,0,stim,poldrack-single-stim,376,442642,0.0-6.2-26.2,go_nogo_deval,432,,<img class = center src='/static/experiments/go_nogo_deval/images/green_pentagon.png'></img>,32,850,test,green_pentagon,go1,32,8,2,,,,,,,-1,-1,1400,0,ITI,poldrack-single-stim,377,444044,0.0-6.2-27.2,go_nogo_deval,432,,<div></div>,32,1400,test,,,,,,,,,,,,-1,-1,500,0,fixation,poldrack-single-stim,378,444545,0.0-6.2-28.2,go_nogo_deval,432,,<div class = centerbox><div class = fixation>+</div></div>,none,500,test,,,,,,,,,,,,321,32,850,0,stim,poldrack-single-stim,379,445397,0.0-6.2-29.2,go_nogo_deval,432,,<img class = center src='/static/experiments/go_nogo_deval/images/green_pentagon.png'></img>,32,850,test,green_pentagon,go1,32,9,2,,,,,,,-1,-1,1400,0,ITI,poldrack-single-stim,380,446798,0.0-6.2-30.2,go_nogo_deval,432,,<div></div>,32,1400,test,,,,,,,,,,,,-1,-1,500,0,fixation,poldrack-single-stim,381,447300,0.0-6.2-31.2,go_nogo_deval,432,,<div class = centerbox><div class = fixation>+</div></div>,none,500,test,,,,,,,,,,,,-1,-1,850,0,stim,poldrack-single-stim,382,448152,0.0-6.2-32.2,go_nogo_deval,432,,<img class = center src='/static/experiments/go_nogo_deval/images/purple_circle.png'></img>,32,850,test,purple_circle,nogo1,-1,10,2,,,,,,,-1,-1,1400,0,ITI,poldrack-single-stim,383,449554,0.0-6.2-33.2,go_nogo_deval,432,,<div></div>,32,1400,test,,,,,,,,,,,,-1,-1,500,0,fixation,poldrack-single-stim,384,450055,0.0-6.2-34.2,go_nogo_deval,432,,<div class = centerbox><div class = fixation>+</div></div>,none,500,test,,,,,,,,,,,,730,32,850,0,stim,poldrack-single-stim,385,450906,0.0-6.2-35.2,go_nogo_deval,432,,<img class = center src='/static/experiments/go_nogo_deval/images/blue_triangle.png'></img>,32,850,test,blue_triangle,go2,32,11,2,,,,,,,-1,-1,1400,0,ITI,poldrack-single-stim,386,452308,0.0-6.2-36.2,go_nogo_deval,432,,<div></div>,32,1400,test,,,,,,,,,,,,-1,-1,500,0,fixation,poldrack-single-stim,387,452810,0.0-6.2-37.2,go_nogo_deval,432,,<div class = centerbox><div class = fixation>+</div></div>,none,500,test,,,,,,,,,,,,392,32,850,0,stim,poldrack-single-stim,388,453662,0.0-6.2-38.2,go_nogo_deval,432,,<img class = center src='/static/experiments/go_nogo_deval/images/blue_triangle.png'></img>,32,850,test,blue_triangle,go2,32,12,2,,,,,,,-1,-1,1400,0,ITI,poldrack-single-stim,389,455064,0.0-6.2-39.2,go_nogo_deval,432,,<div></div>,32,1400,test,,,,,,,,,,,,-1,-1,500,0,fixation,poldrack-single-stim,390,455565,0.0-6.2-40.2,go_nogo_deval,432,,<div class = centerbox><div class = fixation>+</div></div>,none,500,test,,,,,,,,,,,,496,32,850,0,stim,poldrack-single-stim,391,456417,0.0-6.2-41.2,go_nogo_deval,432,,<img class = center src='/static/experiments/go_nogo_deval/images/green_pentagon.png'></img>,32,850,test,green_pentagon,go1,32,13,2,,,,,,,-1,-1,1400,0,ITI,poldrack-single-stim,392,457818,0.0-6.2-42.2,go_nogo_deval,432,,<div></div>,32,1400,test,,,,,,,,,,,,-1,-1,500,0,fixation,poldrack-single-stim,393,458321,0.0-6.2-43.2,go_nogo_deval,432,,<div class = centerbox><div class = fixation>+</div></div>,none,500,test,,,,,,,,,,,,529,32,850,0,stim,poldrack-single-stim,394,459172,0.0-6.2-44.2,go_nogo_deval,432,,<img class = center src='/static/experiments/go_nogo_deval/images/green_pentagon.png'></img>,32,850,test,green_pentagon,go1,32,14,2,,,,,,,-1,-1,1400,0,ITI,poldrack-single-stim,395,460574,0.0-6.2-45.2,go_nogo_deval,432,,<div></div>,32,1400,test,,,,,,,,,,,,-1,-1,500,0,fixation,poldrack-single-stim,396,461076,0.0-6.2-46.2,go_nogo_deval,432,,<div class = centerbox><div class = fixation>+</div></div>,none,500,test,,,,,,,,,,,,362,32,850,0,stim,poldrack-single-stim,397,461928,0.0-6.2-47.2,go_nogo_deval,432,,<img class = center src='/static/experiments/go_nogo_deval/images/green_pentagon.png'></img>,32,850,test,green_pentagon,go1,32,15,2,,,,,,,-1,-1,1400,0,ITI,poldrack-single-stim,398,463330,0.0-6.2-48.2,go_nogo_deval,432,,<div></div>,32,1400,test,,,,,,,,,,,,-1,-1,500,0,fixation,poldrack-single-stim,399,463832,0.0-6.2-49.2,go_nogo_deval,432,,<div class = centerbox><div class = fixation>+</div></div>,none,500,test,,,,,,,,,,,,363,32,850,0,stim,poldrack-single-stim,400,464683,0.0-6.2-50.2,go_nogo_deval,432,,<img class = center src='/static/experiments/go_nogo_deval/images/blue_triangle.png'></img>,32,850,test,blue_triangle,go2,32,16,2,,,,,,,-1,-1,1400,0,ITI,poldrack-single-stim,401,466085,0.0-6.2-51.2,go_nogo_deval,432,,<div></div>,32,1400,test,,,,,,,,,,,,-1,-1,500,0,fixation,poldrack-single-stim,402,466587,0.0-6.2-52.2,go_nogo_deval,432,,<div class = centerbox><div class = fixation>+</div></div>,none,500,test,,,,,,,,,,,,364,32,850,0,stim,poldrack-single-stim,403,467439,0.0-6.2-53.2,go_nogo_deval,432,,<img class = center src='/static/experiments/go_nogo_deval/images/blue_triangle.png'></img>,32,850,test,blue_triangle,go2,32,17,2,,,,,,,-1,-1,1400,0,ITI,poldrack-single-stim,404,468840,0.0-6.2-54.2,go_nogo_deval,432,,<div></div>,32,1400,test,,,,,,,,,,,,-1,-1,500,0,fixation,poldrack-single-stim,405,469342,0.0-6.2-55.2,go_nogo_deval,432,,<div class = centerbox><div class = fixation>+</div></div>,none,500,test,,,,,,,,,,,,-1,-1,850,0,stim,poldrack-single-stim,406,470194,0.0-6.2-56.2,go_nogo_deval,432,,<img class = center src='/static/experiments/go_nogo_deval/images/red_rhombus.png'></img>,32,850,test,red_rhombus,nogo2,-1,18,2,,,,,,,-1,-1,1400,0,ITI,poldrack-single-stim,407,471596,0.0-6.2-57.2,go_nogo_deval,432,,<div></div>,32,1400,test,,,,,,,,,,,,-1,-1,500,0,fixation,poldrack-single-stim,408,472098,0.0-6.2-58.2,go_nogo_deval,432,,<div class = centerbox><div class = fixation>+</div></div>,none,500,test,,,,,,,,,,,,-1,-1,850,0,stim,poldrack-single-stim,409,472949,0.0-6.2-59.2,go_nogo_deval,432,,<img class = center src='/static/experiments/go_nogo_deval/images/purple_circle.png'></img>,32,850,test,purple_circle,nogo1,-1,19,2,,,,,,,-1,-1,1400,0,ITI,poldrack-single-stim,410,474350,0.0-6.2-60.2,go_nogo_deval,432,,<div></div>,32,1400,test,,,,,,,,,,,,-1,-1,500,0,fixation,poldrack-single-stim,411,474851,0.0-6.2-61.2,go_nogo_deval,432,,<div class = centerbox><div class = fixation>+</div></div>,none,500,test,,,,,,,,,,,,447,32,850,0,stim,poldrack-single-stim,412,475703,0.0-6.2-62.2,go_nogo_deval,432,,<img class = center src='/static/experiments/go_nogo_deval/images/green_pentagon.png'></img>,32,850,test,green_pentagon,go1,32,20,2,,,,,,,-1,-1,1400,0,ITI,poldrack-single-stim,413,477105,0.0-6.2-63.2,go_nogo_deval,432,,<div></div>,32,1400,test,,,,,,,,,,,,-1,-1,500,0,fixation,poldrack-single-stim,414,477606,0.0-6.2-64.2,go_nogo_deval,432,,<div class = centerbox><div class = fixation>+</div></div>,none,500,test,,,,,,,,,,,,-1,-1,850,0,stim,poldrack-single-stim,415,478457,0.0-6.2-65.2,go_nogo_deval,432,,<img class = center src='/static/experiments/go_nogo_deval/images/red_rhombus.png'></img>,32,850,test,red_rhombus,nogo2,-1,21,2,,,,,,,-1,-1,1400,0,ITI,poldrack-single-stim,416,479859,0.0-6.2-66.2,go_nogo_deval,432,,<div></div>,32,1400,test,,,,,,,,,,,,-1,-1,500,0,fixation,poldrack-single-stim,417,480361,0.0-6.2-67.2,go_nogo_deval,432,,<div class = centerbox><div class = fixation>+</div></div>,none,500,test,,,,,,,,,,,,-1,-1,850,0,stim,poldrack-single-stim,418,481213,0.0-6.2-68.2,go_nogo_deval,432,,<img class = center src='/static/experiments/go_nogo_deval/images/purple_circle.png'></img>,32,850,test,purple_circle,nogo1,-1,22,2,,,,,,,-1,-1,1400,0,ITI,poldrack-single-stim,419,482613,0.0-6.2-69.2,go_nogo_deval,432,,<div></div>,32,1400,test,,,,,,,,,,,,-1,-1,500,0,fixation,poldrack-single-stim,420,483115,0.0-6.2-70.2,go_nogo_deval,432,,<div class = centerbox><div class = fixation>+</div></div>,none,500,test,,,,,,,,,,,,453,32,850,0,stim,poldrack-single-stim,421,483966,0.0-6.2-71.2,go_nogo_deval,432,,<img class = center src='/static/experiments/go_nogo_deval/images/blue_triangle.png'></img>,32,850,test,blue_triangle,go2,32,23,2,,,,,,,-1,-1,1400,0,ITI,poldrack-single-stim,422,485368,0.0-6.2-72.2,go_nogo_deval,432,,<div></div>,32,1400,test,,,,,,,,,,,,-1,-1,500,0,fixation,poldrack-single-stim,423,485869,0.0-6.2-73.2,go_nogo_deval,432,,<div class = centerbox><div class = fixation>+</div></div>,none,500,test,,,,,,,,,,,,-1,-1,850,0,stim,poldrack-single-stim,424,486721,0.0-6.2-74.2,go_nogo_deval,432,,<img class = center src='/static/experiments/go_nogo_deval/images/red_rhombus.png'></img>,32,850,test,red_rhombus,nogo2,-1,24,2,,,,,,,-1,-1,1400,0,ITI,poldrack-single-stim,425,488122,0.0-6.2-75.2,go_nogo_deval,432,,<div></div>,32,1400,test,,,,,,,,,,,,-1,-1,500,0,fixation,poldrack-single-stim,426,488624,0.0-6.2-76.2,go_nogo_deval,432,,<div class = centerbox><div class = fixation>+</div></div>,none,500,test,,,,,,,,,,,,-1,-1,850,0,stim,poldrack-single-stim,427,489475,0.0-6.2-77.2,go_nogo_deval,432,,<img class = center src='/static/experiments/go_nogo_deval/images/purple_circle.png'></img>,32,850,test,purple_circle,nogo1,-1,25,2,,,,,,,-1,-1,1400,0,ITI,poldrack-single-stim,428,490876,0.0-6.2-78.2,go_nogo_deval,432,,<div></div>,32,1400,test,,,,,,,,,,,,-1,-1,500,0,fixation,poldrack-single-stim,429,491379,0.0-6.2-79.2,go_nogo_deval,432,,<div class = centerbox><div class = fixation>+</div></div>,none,500,test,,,,,,,,,,,,480,32,850,0,stim,poldrack-single-stim,430,492230,0.0-6.2-80.2,go_nogo_deval,432,,<img class = center src='/static/experiments/go_nogo_deval/images/green_pentagon.png'></img>,32,850,test,green_pentagon,go1,32,26,2,,,,,,,-1,-1,1400,0,ITI,poldrack-single-stim,431,493632,0.0-6.2-81.2,go_nogo_deval,432,,<div></div>,32,1400,test,,,,,,,,,,,,-1,-1,500,0,fixation,poldrack-single-stim,432,494133,0.0-6.2-82.2,go_nogo_deval,432,,<div class = centerbox><div class = fixation>+</div></div>,none,500,test,,,,,,,,,,,,-1,-1,850,0,stim,poldrack-single-stim,433,494985,0.0-6.2-83.2,go_nogo_deval,432,,<img class = center src='/static/experiments/go_nogo_deval/images/red_rhombus.png'></img>,32,850,test,red_rhombus,nogo2,-1,27,2,,,,,,,-1,-1,1400,0,ITI,poldrack-single-stim,434,496387,0.0-6.2-84.2,go_nogo_deval,432,,<div></div>,32,1400,test,,,,,,,,,,,,-1,-1,500,0,fixation,poldrack-single-stim,435,496889,0.0-6.2-85.2,go_nogo_deval,432,,<div class = centerbox><div class = fixation>+</div></div>,none,500,test,,,,,,,,,,,,561,32,850,0,stim,poldrack-single-stim,436,497740,0.0-6.2-86.2,go_nogo_deval,432,,<img class = center src='/static/experiments/go_nogo_deval/images/blue_triangle.png'></img>,32,850,test,blue_triangle,go2,32,28,2,,,,,,,-1,-1,1400,0,ITI,poldrack-single-stim,437,499142,0.0-6.2-87.2,go_nogo_deval,432,,<div></div>,32,1400,test,,,,,,,,,,,,-1,-1,500,0,fixation,poldrack-single-stim,438,499643,0.0-6.2-88.2,go_nogo_deval,432,,<div class = centerbox><div class = fixation>+</div></div>,none,500,test,,,,,,,,,,,,484,32,850,0,stim,poldrack-single-stim,439,500495,0.0-6.2-89.2,go_nogo_deval,432,,<img class = center src='/static/experiments/go_nogo_deval/images/blue_triangle.png'></img>,32,850,test,blue_triangle,go2,32,29,2,,,,,,,-1,-1,1400,0,ITI,poldrack-single-stim,440,501897,0.0-6.2-90.2,go_nogo_deval,432,,<div></div>,32,1400,test,,,,,,,,,,,,-1,-1,500,0,fixation,poldrack-single-stim,441,502398,0.0-6.2-91.2,go_nogo_deval,432,,<div class = centerbox><div class = fixation>+</div></div>,none,500,test,,,,,,,,,,,,497,32,850,0,stim,poldrack-single-stim,442,503251,0.0-6.2-92.2,go_nogo_deval,432,,<img class = center src='/static/experiments/go_nogo_deval/images/blue_triangle.png'></img>,32,850,test,blue_triangle,go2,32,30,2,,,,,,,-1,-1,1400,0,ITI,poldrack-single-stim,443,504653,0.0-6.2-93.2,go_nogo_deval,432,,<div></div>,32,1400,test,,,,,,,,,,,,-1,-1,500,0,fixation,poldrack-single-stim,444,505154,0.0-6.2-94.2,go_nogo_deval,432,,<div class = centerbox><div class = fixation>+</div></div>,none,500,test,,,,,,,,,,,,520,32,850,0,stim,poldrack-single-stim,445,506005,0.0-6.2-95.2,go_nogo_deval,432,,<img class = center src='/static/experiments/go_nogo_deval/images/green_pentagon.png'></img>,32,850,test,green_pentagon,go1,32,31,2,,,,,,,-1,-1,1400,0,ITI,poldrack-single-stim,446,507405,0.0-6.2-96.2,go_nogo_deval,432,,<div></div>,32,1400,test,,,,,,,,,,,,-1,-1,500,0,fixation,poldrack-single-stim,447,507907,0.0-6.2-97.2,go_nogo_deval,432,,<div class = centerbox><div class = fixation>+</div></div>,none,500,test,,,,,,,,,,,,-1,-1,850,0,stim,poldrack-single-stim,448,508758,0.0-6.2-98.2,go_nogo_deval,432,,<img class = center src='/static/experiments/go_nogo_deval/images/red_rhombus.png'></img>,32,850,test,red_rhombus,nogo2,-1,32,2,,,,,,,-1,-1,1400,0,ITI,poldrack-single-stim,449,510160,0.0-6.2-99.2,go_nogo_deval,432,,<div></div>,32,1400,test,,,,,,,,,,,,-1,-1,500,0,fixation,poldrack-single-stim,450,510662,0.0-6.2-100.2,go_nogo_deval,432,,<div class = centerbox><div class = fixation>+</div></div>,none,500,test,,,,,,,,,,,,468,32,850,0,stim,poldrack-single-stim,451,511513,0.0-6.2-101.2,go_nogo_deval,432,,<img class = center src='/static/experiments/go_nogo_deval/images/blue_triangle.png'></img>,32,850,test,blue_triangle,go2,32,33,2,,,,,,,-1,-1,1400,0,ITI,poldrack-single-stim,452,512914,0.0-6.2-102.2,go_nogo_deval,432,,<div></div>,32,1400,test,,,,,,,,,,,,-1,-1,500,0,fixation,poldrack-single-stim,453,513416,0.0-6.2-103.2,go_nogo_deval,432,,<div class = centerbox><div class = fixation>+</div></div>,none,500,test,,,,,,,,,,,,403,32,850,0,stim,poldrack-single-stim,454,514268,0.0-6.2-104.2,go_nogo_deval,432,,<img class = center src='/static/experiments/go_nogo_deval/images/blue_triangle.png'></img>,32,850,test,blue_triangle,go2,32,34,2,,,,,,,-1,-1,1400,0,ITI,poldrack-single-stim,455,515670,0.0-6.2-105.2,go_nogo_deval,432,,<div></div>,32,1400,test,,,,,,,,,,,,-1,-1,500,0,fixation,poldrack-single-stim,456,516171,0.0-6.2-106.2,go_nogo_deval,432,,<div class = centerbox><div class = fixation>+</div></div>,none,500,test,,,,,,,,,,,,371,32,850,0,stim,poldrack-single-stim,457,517022,0.0-6.2-107.2,go_nogo_deval,432,,<img class = center src='/static/experiments/go_nogo_deval/images/green_pentagon.png'></img>,32,850,test,green_pentagon,go1,32,35,2,,,,,,,-1,-1,1400,0,ITI,poldrack-single-stim,458,518424,0.0-6.2-108.2,go_nogo_deval,432,,<div></div>,32,1400,test,,,,,,,,,,,,-1,-1,500,0,fixation,poldrack-single-stim,459,518926,0.0-6.2-109.2,go_nogo_deval,432,,<div class = centerbox><div class = fixation>+</div></div>,none,500,test,,,,,,,,,,,,383,32,850,0,stim,poldrack-single-stim,460,519778,0.0-6.2-110.2,go_nogo_deval,432,,<img class = center src='/static/experiments/go_nogo_deval/images/blue_triangle.png'></img>,32,850,test,blue_triangle,go2,32,36,2,,,,,,,-1,-1,1400,0,ITI,poldrack-single-stim,461,521180,0.0-6.2-111.2,go_nogo_deval,432,,<div></div>,32,1400,test,,,,,,,,,,,,-1,-1,500,0,fixation,poldrack-single-stim,462,521681,0.0-6.2-112.2,go_nogo_deval,432,,<div class = centerbox><div class = fixation>+</div></div>,none,500,test,,,,,,,,,,,,418,32,850,0,stim,poldrack-single-stim,463,522533,0.0-6.2-113.2,go_nogo_deval,432,,<img class = center src='/static/experiments/go_nogo_deval/images/green_pentagon.png'></img>,32,850,test,green_pentagon,go1,32,37,2,,,,,,,-1,-1,1400,0,ITI,poldrack-single-stim,464,523934,0.0-6.2-114.2,go_nogo_deval,432,,<div></div>,32,1400,test,,,,,,,,,,,,-1,-1,500,0,fixation,poldrack-single-stim,465,524436,0.0-6.2-115.2,go_nogo_deval,432,,<div class = centerbox><div class = fixation>+</div></div>,none,500,test,,,,,,,,,,,,409,32,850,0,stim,poldrack-single-stim,466,525288,0.0-6.2-116.2,go_nogo_deval,432,,<img class = center src='/static/experiments/go_nogo_deval/images/blue_triangle.png'></img>,32,850,test,blue_triangle,go2,32,38,2,,,,,,,-1,-1,1400,0,ITI,poldrack-single-stim,467,526689,0.0-6.2-117.2,go_nogo_deval,432,,<div></div>,32,1400,test,,,,,,,,,,,,-1,-1,500,0,fixation,poldrack-single-stim,468,527191,0.0-6.2-118.2,go_nogo_deval,432,,<div class = centerbox><div class = fixation>+</div></div>,none,500,test,,,,,,,,,,,,-1,-1,850,0,stim,poldrack-single-stim,469,528042,0.0-6.2-119.2,go_nogo_deval,432,,<img class = center src='/static/experiments/go_nogo_deval/images/purple_circle.png'></img>,32,850,test,purple_circle,nogo1,-1,39,2,,,,,,,-1,-1,1400,0,ITI,poldrack-single-stim,470,529444,0.0-6.2-120.2,go_nogo_deval,432,,<div></div>,32,1400,test,,,,,,,,,,,,-1,-1,500,0,fixation,poldrack-single-stim,471,529945,0.0-6.2-121.2,go_nogo_deval,432,,<div class = centerbox><div class = fixation>+</div></div>,none,500,test,,,,,,,,,,,,446,32,850,0,stim,poldrack-single-stim,472,530797,0.0-6.2-122.2,go_nogo_deval,432,,<img class = center src='/static/experiments/go_nogo_deval/images/green_pentagon.png'></img>,32,850,test,green_pentagon,go1,32,40,2,,,,,,,-1,-1,1400,0,ITI,poldrack-single-stim,473,532199,0.0-6.2-123.2,go_nogo_deval,432,,<div></div>,32,1400,test,,,,,,,,,,,,-1,-1,500,0,fixation,poldrack-single-stim,474,532701,0.0-6.2-124.2,go_nogo_deval,432,,<div class = centerbox><div class = fixation>+</div></div>,none,500,test,,,,,,,,,,,,-1,-1,850,0,stim,poldrack-single-stim,475,533552,0.0-6.2-125.2,go_nogo_deval,432,,<img class = center src='/static/experiments/go_nogo_deval/images/red_rhombus.png'></img>,32,850,test,red_rhombus,nogo2,-1,41,2,,,,,,,-1,-1,1400,0,ITI,poldrack-single-stim,476,534954,0.0-6.2-126.2,go_nogo_deval,432,,<div></div>,32,1400,test,,,,,,,,,,,,-1,-1,500,0,fixation,poldrack-single-stim,477,535456,0.0-6.2-127.2,go_nogo_deval,432,,<div class = centerbox><div class = fixation>+</div></div>,none,500,test,,,,,,,,,,,,-1,-1,850,0,stim,poldrack-single-stim,478,536307,0.0-6.2-128.2,go_nogo_deval,432,,<img class = center src='/static/experiments/go_nogo_deval/images/purple_circle.png'></img>,32,850,test,purple_circle,nogo1,-1,42,2,,,,,,,-1,-1,1400,0,ITI,poldrack-single-stim,479,537709,0.0-6.2-129.2,go_nogo_deval,432,,<div></div>,32,1400,test,,,,,,,,,,,,-1,-1,500,0,fixation,poldrack-single-stim,480,538211,0.0-6.2-130.2,go_nogo_deval,432,,<div class = centerbox><div class = fixation>+</div></div>,none,500,test,,,,,,,,,,,,606,32,850,0,stim,poldrack-single-stim,481,539062,0.0-6.2-131.2,go_nogo_deval,432,,<img class = center src='/static/experiments/go_nogo_deval/images/green_pentagon.png'></img>,32,850,test,green_pentagon,go1,32,43,2,,,,,,,-1,-1,1400,0,ITI,poldrack-single-stim,482,540463,0.0-6.2-132.2,go_nogo_deval,432,,<div></div>,32,1400,test,,,,,,,,,,,,-1,-1,500,0,fixation,poldrack-single-stim,483,540965,0.0-6.2-133.2,go_nogo_deval,432,,<div class = centerbox><div class = fixation>+</div></div>,none,500,test,,,,,,,,,,,,608,32,850,0,stim,poldrack-single-stim,484,541816,0.0-6.2-134.2,go_nogo_deval,432,,<img class = center src='/static/experiments/go_nogo_deval/images/green_pentagon.png'></img>,32,850,test,green_pentagon,go1,32,44,2,,,,,,,-1,-1,1400,0,ITI,poldrack-single-stim,485,543217,0.0-6.2-135.2,go_nogo_deval,432,,<div></div>,32,1400,test,,,,,,,,,,,,-1,-1,500,0,fixation,poldrack-single-stim,486,543719,0.0-6.2-136.2,go_nogo_deval,432,,<div class = centerbox><div class = fixation>+</div></div>,none,500,test,,,,,,,,,,,,418,32,850,0,stim,poldrack-single-stim,487,544571,0.0-6.2-137.2,go_nogo_deval,432,,<img class = center src='/static/experiments/go_nogo_deval/images/green_pentagon.png'></img>,32,850,test,green_pentagon,go1,32,45,2,,,,,,,-1,-1,1400,0,ITI,poldrack-single-stim,488,545972,0.0-6.2-138.2,go_nogo_deval,432,,<div></div>,32,1400,test,,,,,,,,,,,,-1,-1,500,0,fixation,poldrack-single-stim,489,546474,0.0-6.2-139.2,go_nogo_deval,432,,<div class = centerbox><div class = fixation>+</div></div>,none,500,test,,,,,,,,,,,,-1,-1,850,0,stim,poldrack-single-stim,490,547325,0.0-6.2-140.2,go_nogo_deval,432,,<img class = center src='/static/experiments/go_nogo_deval/images/purple_circle.png'></img>,32,850,test,purple_circle,nogo1,-1,46,2,,,,,,,-1,-1,1400,0,ITI,poldrack-single-stim,491,548726,0.0-6.2-141.2,go_nogo_deval,432,,<div></div>,32,1400,test,,,,,,,,,,,,-1,-1,500,0,fixation,poldrack-single-stim,492,549228,0.0-6.2-142.2,go_nogo_deval,432,,<div class = centerbox><div class = fixation>+</div></div>,none,500,test,,,,,,,,,,,,-1,-1,850,0,stim,poldrack-single-stim,493,550080,0.0-6.2-143.2,go_nogo_deval,432,,<img class = center src='/static/experiments/go_nogo_deval/images/purple_circle.png'></img>,32,850,test,purple_circle,nogo1,-1,47,2,,,,,,,-1,-1,1400,0,ITI,poldrack-single-stim,494,551481,0.0-6.2-144.2,go_nogo_deval,432,,<div></div>,32,1400,test,,,,,,,,,,,,30228,13,30228,0,practice-no-stop-feedback,poldrack-single-stim,495,581714,0.0-6.3-0.3,go_nogo_deval,432,,<div class = centerbox><p class = block-text><br>Please take this time to read your feedback and to take a short break! Press enter to continue</p><p class = block-text><strong>Average reaction time:  451 ms. Accuracy: 100%</strong></p></div>,13,30228,,,,,,,,,,,,,-1,-1,500,0,fixation,poldrack-single-stim,496,582216,0.0-6.3-1.3,go_nogo_deval,432,,<div class = centerbox><div class = fixation>+</div></div>,none,500,test,,,,,,,,,,,,-1,-1,850,0,stim,poldrack-single-stim,497,583068,0.0-6.3-2.3,go_nogo_deval,432,,<img class = center src='/static/experiments/go_nogo_deval/images/red_rhombus.png'></img>,32,850,test,red_rhombus,nogo2,-1,0,3,,,,,,,-1,-1,1400,0,ITI,poldrack-single-stim,498,584469,0.0-6.3-3.3,go_nogo_deval,432,,<div></div>,32,1400,test,,,,,,,,,,,,-1,-1,500,0,fixation,poldrack-single-stim,499,584971,0.0-6.3-4.3,go_nogo_deval,432,,<div class = centerbox><div class = fixation>+</div></div>,none,500,test,,,,,,,,,,,,387,32,850,0,stim,poldrack-single-stim,500,585822,0.0-6.3-5.3,go_nogo_deval,432,,<img class = center src='/static/experiments/go_nogo_deval/images/green_pentagon.png'></img>,32,850,test,green_pentagon,go1,32,1,3,,,,,,,-1,-1,1400,0,ITI,poldrack-single-stim,501,587223,0.0-6.3-6.3,go_nogo_deval,432,,<div></div>,32,1400,test,,,,,,,,,,,,-1,-1,500,0,fixation,poldrack-single-stim,502,587724,0.0-6.3-7.3,go_nogo_deval,432,,<div class = centerbox><div class = fixation>+</div></div>,none,500,test,,,,,,,,,,,,402,32,850,0,stim,poldrack-single-stim,503,588576,0.0-6.3-8.3,go_nogo_deval,432,,<img class = center src='/static/experiments/go_nogo_deval/images/blue_triangle.png'></img>,32,850,test,blue_triangle,go2,32,2,3,,,,,,,-1,-1,1400,0,ITI,poldrack-single-stim,504,589978,0.0-6.3-9.3,go_nogo_deval,432,,<div></div>,32,1400,test,,,,,,,,,,,,-1,-1,500,0,fixation,poldrack-single-stim,505,590480,0.0-6.3-10.3,go_nogo_deval,432,,<div class = centerbox><div class = fixation>+</div></div>,none,500,test,,,,,,,,,,,,323,32,850,0,stim,poldrack-single-stim,506,591331,0.0-6.3-11.3,go_nogo_deval,432,,<img class = center src='/static/experiments/go_nogo_deval/images/blue_triangle.png'></img>,32,850,test,blue_triangle,go2,32,3,3,,,,,,,-1,-1,1400,0,ITI,poldrack-single-stim,507,592733,0.0-6.3-12.3,go_nogo_deval,432,,<div></div>,32,1400,test,,,,,,,,,,,,-1,-1,500,0,fixation,poldrack-single-stim,508,593234,0.0-6.3-13.3,go_nogo_deval,432,,<div class = centerbox><div class = fixation>+</div></div>,none,500,test,,,,,,,,,,,,371,32,850,0,stim,poldrack-single-stim,509,594086,0.0-6.3-14.3,go_nogo_deval,432,,<img class = center src='/static/experiments/go_nogo_deval/images/green_pentagon.png'></img>,32,850,test,green_pentagon,go1,32,4,3,,,,,,,-1,-1,1400,0,ITI,poldrack-single-stim,510,595488,0.0-6.3-15.3,go_nogo_deval,432,,<div></div>,32,1400,test,,,,,,,,,,,,-1,-1,500,0,fixation,poldrack-single-stim,511,595989,0.0-6.3-16.3,go_nogo_deval,432,,<div class = centerbox><div class = fixation>+</div></div>,none,500,test,,,,,,,,,,,,349,32,850,0,stim,poldrack-single-stim,512,596841,0.0-6.3-17.3,go_nogo_deval,432,,<img class = center src='/static/experiments/go_nogo_deval/images/green_pentagon.png'></img>,32,850,test,green_pentagon,go1,32,5,3,,,,,,,-1,-1,1400,0,ITI,poldrack-single-stim,513,598242,0.0-6.3-18.3,go_nogo_deval,432,,<div></div>,32,1400,test,,,,,,,,,,,,-1,-1,500,0,fixation,poldrack-single-stim,514,598744,0.0-6.3-19.3,go_nogo_deval,432,,<div class = centerbox><div class = fixation>+</div></div>,none,500,test,,,,,,,,,,,,396,32,850,0,stim,poldrack-single-stim,515,599596,0.0-6.3-20.3,go_nogo_deval,432,,<img class = center src='/static/experiments/go_nogo_deval/images/blue_triangle.png'></img>,32,850,test,blue_triangle,go2,32,6,3,,,,,,,-1,-1,1400,0,ITI,poldrack-single-stim,516,600998,0.0-6.3-21.3,go_nogo_deval,432,,<div></div>,32,1400,test,,,,,,,,,,,,-1,-1,500,0,fixation,poldrack-single-stim,517,601500,0.0-6.3-22.3,go_nogo_deval,432,,<div class = centerbox><div class = fixation>+</div></div>,none,500,test,,,,,,,,,,,,407,32,850,0,stim,poldrack-single-stim,518,602352,0.0-6.3-23.3,go_nogo_deval,432,,<img class = center src='/static/experiments/go_nogo_deval/images/green_pentagon.png'></img>,32,850,test,green_pentagon,go1,32,7,3,,,,,,,-1,-1,1400,0,ITI,poldrack-single-stim,519,603752,0.0-6.3-24.3,go_nogo_deval,432,,<div></div>,32,1400,test,,,,,,,,,,,,-1,-1,500,0,fixation,poldrack-single-stim,520,604253,0.0-6.3-25.3,go_nogo_deval,432,,<div class = centerbox><div class = fixation>+</div></div>,none,500,test,,,,,,,,,,,,388,32,850,0,stim,poldrack-single-stim,521,605105,0.0-6.3-26.3,go_nogo_deval,432,,<img class = center src='/static/experiments/go_nogo_deval/images/blue_triangle.png'></img>,32,850,test,blue_triangle,go2,32,8,3,,,,,,,-1,-1,1400,0,ITI,poldrack-single-stim,522,606507,0.0-6.3-27.3,go_nogo_deval,432,,<div></div>,32,1400,test,,,,,,,,,,,,-1,-1,500,0,fixation,poldrack-single-stim,523,607008,0.0-6.3-28.3,go_nogo_deval,432,,<div class = centerbox><div class = fixation>+</div></div>,none,500,test,,,,,,,,,,,,-1,-1,850,0,stim,poldrack-single-stim,524,607860,0.0-6.3-29.3,go_nogo_deval,432,,<img class = center src='/static/experiments/go_nogo_deval/images/red_rhombus.png'></img>,32,850,test,red_rhombus,nogo2,-1,9,3,,,,,,,-1,-1,1400,0,ITI,poldrack-single-stim,525,609261,0.0-6.3-30.3,go_nogo_deval,432,,<div></div>,32,1400,test,,,,,,,,,,,,-1,-1,500,0,fixation,poldrack-single-stim,526,609763,0.0-6.3-31.3,go_nogo_deval,432,,<div class = centerbox><div class = fixation>+</div></div>,none,500,test,,,,,,,,,,,,391,32,850,0,stim,poldrack-single-stim,527,610614,0.0-6.3-32.3,go_nogo_deval,432,,<img class = center src='/static/experiments/go_nogo_deval/images/blue_triangle.png'></img>,32,850,test,blue_triangle,go2,32,10,3,,,,,,,-1,-1,1400,0,ITI,poldrack-single-stim,528,612015,0.0-6.3-33.3,go_nogo_deval,432,,<div></div>,32,1400,test,,,,,,,,,,,,-1,-1,500,0,fixation,poldrack-single-stim,529,612517,0.0-6.3-34.3,go_nogo_deval,432,,<div class = centerbox><div class = fixation>+</div></div>,none,500,test,,,,,,,,,,,,404,32,850,0,stim,poldrack-single-stim,530,613369,0.0-6.3-35.3,go_nogo_deval,432,,<img class = center src='/static/experiments/go_nogo_deval/images/blue_triangle.png'></img>,32,850,test,blue_triangle,go2,32,11,3,,,,,,,-1,-1,1400,0,ITI,poldrack-single-stim,531,614770,0.0-6.3-36.3,go_nogo_deval,432,,<div></div>,32,1400,test,,,,,,,,,,,,-1,-1,500,0,fixation,poldrack-single-stim,532,615272,0.0-6.3-37.3,go_nogo_deval,432,,<div class = centerbox><div class = fixation>+</div></div>,none,500,test,,,,,,,,,,,,-1,-1,850,0,stim,poldrack-single-stim,533,616122,0.0-6.3-38.3,go_nogo_deval,432,,<img class = center src='/static/experiments/go_nogo_deval/images/purple_circle.png'></img>,32,850,test,purple_circle,nogo1,-1,12,3,,,,,,,-1,-1,1400,0,ITI,poldrack-single-stim,534,617524,0.0-6.3-39.3,go_nogo_deval,432,,<div></div>,32,1400,test,,,,,,,,,,,,-1,-1,500,0,fixation,poldrack-single-stim,535,618026,0.0-6.3-40.3,go_nogo_deval,432,,<div class = centerbox><div class = fixation>+</div></div>,none,500,test,,,,,,,,,,,,-1,-1,850,0,stim,poldrack-single-stim,536,618877,0.0-6.3-41.3,go_nogo_deval,432,,<img class = center src='/static/experiments/go_nogo_deval/images/red_rhombus.png'></img>,32,850,test,red_rhombus,nogo2,-1,13,3,,,,,,,-1,-1,1400,0,ITI,poldrack-single-stim,537,620279,0.0-6.3-42.3,go_nogo_deval,432,,<div></div>,32,1400,test,,,,,,,,,,,,-1,-1,500,0,fixation,poldrack-single-stim,538,620780,0.0-6.3-43.3,go_nogo_deval,432,,<div class = centerbox><div class = fixation>+</div></div>,none,500,test,,,,,,,,,,,,376,32,850,0,stim,poldrack-single-stim,539,621632,0.0-6.3-44.3,go_nogo_deval,432,,<img class = center src='/static/experiments/go_nogo_deval/images/green_pentagon.png'></img>,32,850,test,green_pentagon,go1,32,14,3,,,,,,,-1,-1,1400,0,ITI,poldrack-single-stim,540,623034,0.0-6.3-45.3,go_nogo_deval,432,,<div></div>,32,1400,test,,,,,,,,,,,,-1,-1,500,0,fixation,poldrack-single-stim,541,623535,0.0-6.3-46.3,go_nogo_deval,432,,<div class = centerbox><div class = fixation>+</div></div>,none,500,test,,,,,,,,,,,,-1,-1,850,0,stim,poldrack-single-stim,542,624387,0.0-6.3-47.3,go_nogo_deval,432,,<img class = center src='/static/experiments/go_nogo_deval/images/red_rhombus.png'></img>,32,850,test,red_rhombus,nogo2,-1,15,3,,,,,,,-1,-1,1400,0,ITI,poldrack-single-stim,543,625789,0.0-6.3-48.3,go_nogo_deval,432,,<div></div>,32,1400,test,,,,,,,,,,,,-1,-1,500,0,fixation,poldrack-single-stim,544,626290,0.0-6.3-49.3,go_nogo_deval,432,,<div class = centerbox><div class = fixation>+</div></div>,none,500,test,,,,,,,,,,,,457,32,850,0,stim,poldrack-single-stim,545,627142,0.0-6.3-50.3,go_nogo_deval,432,,<img class = center src='/static/experiments/go_nogo_deval/images/green_pentagon.png'></img>,32,850,test,green_pentagon,go1,32,16,3,,,,,,,-1,-1,1400,0,ITI,poldrack-single-stim,546,628544,0.0-6.3-51.3,go_nogo_deval,432,,<div></div>,32,1400,test,,,,,,,,,,,,-1,-1,500,0,fixation,poldrack-single-stim,547,629046,0.0-6.3-52.3,go_nogo_deval,432,,<div class = centerbox><div class = fixation>+</div></div>,none,500,test,,,,,,,,,,,,-1,-1,850,0,stim,poldrack-single-stim,548,629897,0.0-6.3-53.3,go_nogo_deval,432,,<img class = center src='/static/experiments/go_nogo_deval/images/red_rhombus.png'></img>,32,850,test,red_rhombus,nogo2,-1,17,3,,,,,,,-1,-1,1400,0,ITI,poldrack-single-stim,549,631299,0.0-6.3-54.3,go_nogo_deval,432,,<div></div>,32,1400,test,,,,,,,,,,,,-1,-1,500,0,fixation,poldrack-single-stim,550,631801,0.0-6.3-55.3,go_nogo_deval,432,,<div class = centerbox><div class = fixation>+</div></div>,none,500,test,,,,,,,,,,,,426,32,850,0,stim,poldrack-single-stim,551,632652,0.0-6.3-56.3,go_nogo_deval,432,,<img class = center src='/static/experiments/go_nogo_deval/images/blue_triangle.png'></img>,32,850,test,blue_triangle,go2,32,18,3,,,,,,,-1,-1,1400,0,ITI,poldrack-single-stim,552,634053,0.0-6.3-57.3,go_nogo_deval,432,,<div></div>,32,1400,test,,,,,,,,,,,,-1,-1,500,0,fixation,poldrack-single-stim,553,634555,0.0-6.3-58.3,go_nogo_deval,432,,<div class = centerbox><div class = fixation>+</div></div>,none,500,test,,,,,,,,,,,,405,32,850,0,stim,poldrack-single-stim,554,635406,0.0-6.3-59.3,go_nogo_deval,432,,<img class = center src='/static/experiments/go_nogo_deval/images/blue_triangle.png'></img>,32,850,test,blue_triangle,go2,32,19,3,,,,,,,-1,-1,1400,0,ITI,poldrack-single-stim,555,636808,0.0-6.3-60.3,go_nogo_deval,432,,<div></div>,32,1400,test,,,,,,,,,,,,-1,-1,500,0,fixation,poldrack-single-stim,556,637309,0.0-6.3-61.3,go_nogo_deval,432,,<div class = centerbox><div class = fixation>+</div></div>,none,500,test,,,,,,,,,,,,-1,-1,850,0,stim,poldrack-single-stim,557,638160,0.0-6.3-62.3,go_nogo_deval,432,,<img class = center src='/static/experiments/go_nogo_deval/images/purple_circle.png'></img>,32,850,test,purple_circle,nogo1,-1,20,3,,,,,,,-1,-1,1400,0,ITI,poldrack-single-stim,558,639562,0.0-6.3-63.3,go_nogo_deval,432,,<div></div>,32,1400,test,,,,,,,,,,,,-1,-1,500,0,fixation,poldrack-single-stim,559,640064,0.0-6.3-64.3,go_nogo_deval,432,,<div class = centerbox><div class = fixation>+</div></div>,none,500,test,,,,,,,,,,,,-1,-1,850,0,stim,poldrack-single-stim,560,640914,0.0-6.3-65.3,go_nogo_deval,432,,<img class = center src='/static/experiments/go_nogo_deval/images/purple_circle.png'></img>,32,850,test,purple_circle,nogo1,-1,21,3,,,,,,,-1,-1,1400,0,ITI,poldrack-single-stim,561,642316,0.0-6.3-66.3,go_nogo_deval,432,,<div></div>,32,1400,test,,,,,,,,,,,,-1,-1,500,0,fixation,poldrack-single-stim,562,642818,0.0-6.3-67.3,go_nogo_deval,432,,<div class = centerbox><div class = fixation>+</div></div>,none,500,test,,,,,,,,,,,,490,32,850,0,stim,poldrack-single-stim,563,643670,0.0-6.3-68.3,go_nogo_deval,432,,<img class = center src='/static/experiments/go_nogo_deval/images/blue_triangle.png'></img>,32,850,test,blue_triangle,go2,32,22,3,,,,,,,-1,-1,1400,0,ITI,poldrack-single-stim,564,645071,0.0-6.3-69.3,go_nogo_deval,432,,<div></div>,32,1400,test,,,,,,,,,,,,-1,-1,500,0,fixation,poldrack-single-stim,565,645572,0.0-6.3-70.3,go_nogo_deval,432,,<div class = centerbox><div class = fixation>+</div></div>,none,500,test,,,,,,,,,,,,446,32,850,0,stim,poldrack-single-stim,566,646423,0.0-6.3-71.3,go_nogo_deval,432,,<img class = center src='/static/experiments/go_nogo_deval/images/blue_triangle.png'></img>,32,850,test,blue_triangle,go2,32,23,3,,,,,,,-1,-1,1400,0,ITI,poldrack-single-stim,567,647825,0.0-6.3-72.3,go_nogo_deval,432,,<div></div>,32,1400,test,,,,,,,,,,,,-1,-1,500,0,fixation,poldrack-single-stim,568,648327,0.0-6.3-73.3,go_nogo_deval,432,,<div class = centerbox><div class = fixation>+</div></div>,none,500,test,,,,,,,,,,,,459,32,850,0,stim,poldrack-single-stim,569,649179,0.0-6.3-74.3,go_nogo_deval,432,,<img class = center src='/static/experiments/go_nogo_deval/images/purple_circle.png'></img>,32,850,test,purple_circle,nogo1,-1,24,3,,,,,,,-1,-1,1400,0,ITI,poldrack-single-stim,570,650579,0.0-6.3-75.3,go_nogo_deval,432,,<div></div>,32,1400,test,,,,,,,,,,,,-1,-1,500,0,fixation,poldrack-single-stim,571,651081,0.0-6.3-76.3,go_nogo_deval,432,,<div class = centerbox><div class = fixation>+</div></div>,none,500,test,,,,,,,,,,,