text,rt,key_press,block_duration,timing_post_trial,trial_id,trial_type,trial_index,time_elapsed,internal_node_id,exp_id,subject_ID,view_history,stimulus,possible_responses,stim_duration,exp_stage,stim,go_nogo_type,correct_response,current_trial,current_block,chosenStim,chosenCond,stimLeft,cond_left,stimRight,cond_right<div class = centerbox><p class = center-block-text>Welcome to the task!</p><p class = center-block-text>Press<strong> enter</strong> to continue.</p></div>,1725,13,1725,0,welcome,poldrack-text,0,1727,0.0-0.0,go_nogo_deval,412,,,,,,,,,,,,,,,,,35889,,,,instruction,poldrack-instructions,1,37618,0.0-1.0,go_nogo_deval,412,"[{""page_index"":0,""viewing_time"":3050},{""page_index"":1,""viewing_time"":32839}]",,,,,,,,,,,,,,,,4675,13,4675,0,stop_intro_phase1,poldrack-single-stim,2,43295,0.0-2.0,go_nogo_deval,412,,"<div class = centerbox><p class = block-text>We will now start the practice for the experiment.<br><br>For these trials, you must press the <strong>spacebar </strong> or have <strong>no response</strong> depending on the shape of the stimulus.  Make sure to respond as quickly and accurately as possible to the shape. <br><br> The responses for each shape are as follows: <ul list-text><li>pentagon: spacebar</li><li>rhombus: spacebar</li><li>circle: no response</li><li>triangle: no response</li></ul></p><p class = block-text>Remember these rules before you proceed.</p><p class = block-text>Press <strong> enter</strong> to begin.</p></div>",13,4675,,,,,,,,,,,,,2776,13,2776,0,practice-no-stop-feedback,poldrack-single-stim,3,46074,0.0-3.0-0.0,go_nogo_deval,412,,<div class = centerbox><p class = block-text>We will now start with a practice session. In this practice concentrate on responding quickly and accurately to each stimuli unless it requires no response.</p><p class = block-text>Press enter to continue.</p></div>,13,2776,,,,,,,,,,,,,-1,-1,500,0,prompt_fixation,poldrack-single-stim,4,46576,0.0-3.0-1.0,go_nogo_deval,412,,<div class = centerbox><div class = fixation>+</div></div>,none,500,practice,,,,,,,,,,,,554,32,850,0,stim,poldrack-single-stim,5,47429,0.0-3.0-2.0,go_nogo_deval,412,,<img class = center src='/static/experiments/go_nogo_deval/images/blue_triangle.png'></img>,32,850,practice,blue_triangle,nogo2,-1,0,0,,,,,,,-1,-1,1400,0,ITI,poldrack-single-stim,6,48831,0.0-3.0-3.0,go_nogo_deval,412,,<div></div>,32,1400,practice,,,,,,,,,,,,-1,-1,500,0,prompt_fixation,poldrack-single-stim,7,49333,0.0-3.0-4.0,go_nogo_deval,412,,<div class = centerbox><div class = fixation>+</div></div>,none,500,practice,,,,,,,,,,,,-1,-1,850,0,stim,poldrack-single-stim,8,50185,0.0-3.0-5.0,go_nogo_deval,412,,<img class = center src='/static/experiments/go_nogo_deval/images/blue_triangle.png'></img>,32,850,practice,blue_triangle,nogo2,-1,1,0,,,,,,,-1,-1,1400,0,ITI,poldrack-single-stim,9,51587,0.0-3.0-6.0,go_nogo_deval,412,,<div></div>,32,1400,practice,,,,,,,,,,,,-1,-1,500,0,prompt_fixation,poldrack-single-stim,10,52089,0.0-3.0-7.0,go_nogo_deval,412,,<div class = centerbox><div class = fixation>+</div></div>,none,500,practice,,,,,,,,,,,,487,32,850,0,stim,poldrack-single-stim,11,52941,0.0-3.0-8.0,go_nogo_deval,412,,<img class = center src='/static/experiments/go_nogo_deval/images/green_rhombus.png'></img>,32,850,practice,green_rhombus,go2,32,2,0,,,,,,,827,32,1400,0,ITI,poldrack-single-stim,12,54342,0.0-3.0-9.0,go_nogo_deval,412,,<div></div>,32,1400,practice,,,,,,,,,,,,-1,-1,500,0,prompt_fixation,poldrack-single-stim,13,54844,0.0-3.0-10.0,go_nogo_deval,412,,<div class = centerbox><div class = fixation>+</div></div>,none,500,practice,,,,,,,,,,,,623,32,850,0,stim,poldrack-single-stim,14,55695,0.0-3.0-11.0,go_nogo_deval,412,,<img class = center src='/static/experiments/go_nogo_deval/images/purple_pentagon.png'></img>,32,850,practice,purple_pentagon,go1,32,3,0,,,,,,,-1,-1,1400,0,ITI,poldrack-single-stim,15,57097,0.0-3.0-12.0,go_nogo_deval,412,,<div></div>,32,1400,practice,,,,,,,,,,,,-1,-1,500,0,prompt_fixation,poldrack-single-stim,16,57599,0.0-3.0-13.0,go_nogo_deval,412,,<div class = centerbox><div class = fixation>+</div></div>,none,500,practice,,,,,,,,,,,,614,32,850,0,stim,poldrack-single-stim,17,58450,0.0-3.0-14.0,go_nogo_deval,412,,<img class = center src='/static/experiments/go_nogo_deval/images/purple_pentagon.png'></img>,32,850,practice,purple_pentagon,go1,32,4,0,,,,,,,-1,-1,1400,0,ITI,poldrack-single-stim,18,59851,0.0-3.0-15.0,go_nogo_deval,412,,<div></div>,32,1400,practice,,,,,,,,,,,,-1,-1,500,0,prompt_fixation,poldrack-single-stim,19,60353,0.0-3.0-16.0,go_nogo_deval,412,,<div class = centerbox><div class = fixation>+</div></div>,none,500,practice,,,,,,,,,,,,592,32,850,0,stim,poldrack-single-stim,20,61205,0.0-3.0-17.0,go_nogo_deval,412,,<img class = center src='/static/experiments/go_nogo_deval/images/purple_pentagon.png'></img>,32,850,practice,purple_pentagon,go1,32,5,0,,,,,,,-1,-1,1400,0,ITI,poldrack-single-stim,21,62608,0.0-3.0-18.0,go_nogo_deval,412,,<div></div>,32,1400,practice,,,,,,,,,,,,-1,-1,500,0,prompt_fixation,poldrack-single-stim,22,63110,0.0-3.0-19.0,go_nogo_deval,412,,<div class = centerbox><div class = fixation>+</div></div>,none,500,practice,,,,,,,,,,,,570,32,850,0,stim,poldrack-single-stim,23,63962,0.0-3.0-20.0,go_nogo_deval,412,,<img class = center src='/static/experiments/go_nogo_deval/images/green_rhombus.png'></img>,32,850,practice,green_rhombus,go2,32,6,0,,,,,,,-1,-1,1400,0,ITI,poldrack-single-stim,24,65364,0.0-3.0-21.0,go_nogo_deval,412,,<div></div>,32,1400,practice,,,,,,,,,,,,-1,-1,500,0,prompt_fixation,poldrack-single-stim,25,65865,0.0-3.0-22.0,go_nogo_deval,412,,<div class = centerbox><div class = fixation>+</div></div>,none,500,practice,,,,,,,,,,,,414,32,850,0,stim,poldrack-single-stim,26,66717,0.0-3.0-23.0,go_nogo_deval,412,,<img class = center src='/static/experiments/go_nogo_deval/images/purple_pentagon.png'></img>,32,850,practice,purple_pentagon,go1,32,7,0,,,,,,,-1,-1,1400,0,ITI,poldrack-single-stim,27,68119,0.0-3.0-24.0,go_nogo_deval,412,,<div></div>,32,1400,practice,,,,,,,,,,,,-1,-1,500,0,prompt_fixation,poldrack-single-stim,28,68620,0.0-3.0-25.0,go_nogo_deval,412,,<div class = centerbox><div class = fixation>+</div></div>,none,500,practice,,,,,,,,,,,,448,32,850,0,stim,poldrack-single-stim,29,69472,0.0-3.0-26.0,go_nogo_deval,412,,<img class = center src='/static/experiments/go_nogo_deval/images/purple_pentagon.png'></img>,32,850,practice,purple_pentagon,go1,32,8,0,,,,,,,-1,-1,1400,0,ITI,poldrack-single-stim,30,70874,0.0-3.0-27.0,go_nogo_deval,412,,<div></div>,32,1400,practice,,,,,,,,,,,,-1,-1,500,0,prompt_fixation,poldrack-single-stim,31,71376,0.0-3.0-28.0,go_nogo_deval,412,,<div class = centerbox><div class = fixation>+</div></div>,none,500,practice,,,,,,,,,,,,-1,-1,850,0,stim,poldrack-single-stim,32,72228,0.0-3.0-29.0,go_nogo_deval,412,,<img class = center src='/static/experiments/go_nogo_deval/images/red_circle.png'></img>,32,850,practice,red_circle,nogo1,-1,9,0,,,,,,,-1,-1,1400,0,ITI,poldrack-single-stim,33,73630,0.0-3.0-30.0,go_nogo_deval,412,,<div></div>,32,1400,practice,,,,,,,,,,,,-1,-1,500,0,prompt_fixation,poldrack-single-stim,34,74132,0.0-3.0-31.0,go_nogo_deval,412,,<div class = centerbox><div class = fixation>+</div></div>,none,500,practice,,,,,,,,,,,,-1,-1,850,0,stim,poldrack-single-stim,35,74984,0.0-3.0-32.0,go_nogo_deval,412,,<img class = center src='/static/experiments/go_nogo_deval/images/red_circle.png'></img>,32,850,practice,red_circle,nogo1,-1,10,0,,,,,,,-1,-1,1400,0,ITI,poldrack-single-stim,36,76386,0.0-3.0-33.0,go_nogo_deval,412,,<div></div>,32,1400,practice,,,,,,,,,,,,-1,-1,500,0,prompt_fixation,poldrack-single-stim,37,76888,0.0-3.0-34.0,go_nogo_deval,412,,<div class = centerbox><div class = fixation>+</div></div>,none,500,practice,,,,,,,,,,,,461,32,850,0,stim,poldrack-single-stim,38,77739,0.0-3.0-35.0,go_nogo_deval,412,,<img class = center src='/static/experiments/go_nogo_deval/images/green_rhombus.png'></img>,32,850,practice,green_rhombus,go2,32,11,0,,,,,,,-1,-1,1400,0,ITI,poldrack-single-stim,39,79140,0.0-3.0-36.0,go_nogo_deval,412,,<div></div>,32,1400,practice,,,,,,,,,,,,-1,-1,500,0,prompt_fixation,poldrack-single-stim,40,79642,0.0-3.0-37.0,go_nogo_deval,412,,<div class = centerbox><div class = fixation>+</div></div>,none,500,practice,,,,,,,,,,,,462,32,850,0,stim,poldrack-single-stim,41,80494,0.0-3.0-38.0,go_nogo_deval,412,,<img class = center src='/static/experiments/go_nogo_deval/images/blue_triangle.png'></img>,32,850,practice,blue_triangle,nogo2,-1,12,0,,,,,,,-1,-1,1400,0,ITI,poldrack-single-stim,42,81896,0.0-3.0-39.0,go_nogo_deval,412,,<div></div>,32,1400,practice,,,,,,,,,,,,-1,-1,500,0,prompt_fixation,poldrack-single-stim,43,82398,0.0-3.0-40.0,go_nogo_deval,412,,<div class = centerbox><div class = fixation>+</div></div>,none,500,practice,,,,,,,,,,,,564,32,850,0,stim,poldrack-single-stim,44,83250,0.0-3.0-41.0,go_nogo_deval,412,,<img class = center src='/static/experiments/go_nogo_deval/images/green_rhombus.png'></img>,32,850,practice,green_rhombus,go2,32,13,0,,,,,,,-1,-1,1400,0,ITI,poldrack-single-stim,45,84651,0.0-3.0-42.0,go_nogo_deval,412,,<div></div>,32,1400,practice,,,,,,,,,,,,-1,-1,500,0,prompt_fixation,poldrack-single-stim,46,85153,0.0-3.0-43.0,go_nogo_deval,412,,<div class = centerbox><div class = fixation>+</div></div>,none,500,practice,,,,,,,,,,,,498,32,850,0,stim,poldrack-single-stim,47,86005,0.0-3.0-44.0,go_nogo_deval,412,,<img class = center src='/static/experiments/go_nogo_deval/images/purple_pentagon.png'></img>,32,850,practice,purple_pentagon,go1,32,14,0,,,,,,,-1,-1,1400,0,ITI,poldrack-single-stim,48,87406,0.0-3.0-45.0,go_nogo_deval,412,,<div></div>,32,1400,practice,,,,,,,,,,,,-1,-1,500,0,prompt_fixation,poldrack-single-stim,49,87909,0.0-3.0-46.0,go_nogo_deval,412,,<div class = centerbox><div class = fixation>+</div></div>,none,500,practice,,,,,,,,,,,,533,32,850,0,stim,poldrack-single-stim,50,88761,0.0-3.0-47.0,go_nogo_deval,412,,<img class = center src='/static/experiments/go_nogo_deval/images/green_rhombus.png'></img>,32,850,practice,green_rhombus,go2,32,15,0,,,,,,,-1,-1,1400,0,ITI,poldrack-single-stim,51,90162,0.0-3.0-48.0,go_nogo_deval,412,,<div></div>,32,1400,practice,,,,,,,,,,,,-1,-1,500,0,prompt_fixation,poldrack-single-stim,52,90664,0.0-3.0-49.0,go_nogo_deval,412,,<div class = centerbox><div class = fixation>+</div></div>,none,500,practice,,,,,,,,,,,,500,32,850,0,stim,poldrack-single-stim,53,91516,0.0-3.0-50.0,go_nogo_deval,412,,<img class = center src='/static/experiments/go_nogo_deval/images/green_rhombus.png'></img>,32,850,practice,green_rhombus,go2,32,16,0,,,,,,,-1,-1,1400,0,ITI,poldrack-single-stim,54,92918,0.0-3.0-51.0,go_nogo_deval,412,,<div></div>,32,1400,practice,,,,,,,,,,,,-1,-1,500,0,prompt_fixation,poldrack-single-stim,55,93420,0.0-3.0-52.0,go_nogo_deval,412,,<div class = centerbox><div class = fixation>+</div></div>,none,500,practice,,,,,,,,,,,,-1,-1,850,0,stim,poldrack-single-stim,56,94272,0.0-3.0-53.0,go_nogo_deval,412,,<img class = center src='/static/experiments/go_nogo_deval/images/red_circle.png'></img>,32,850,practice,red_circle,nogo1,-1,17,0,,,,,,,-1,-1,1400,0,ITI,poldrack-single-stim,57,95673,0.0-3.0-54.0,go_nogo_deval,412,,<div></div>,32,1400,practice,,,,,,,,,,,,12049,13,12049,0,practice-no-stop-feedback,poldrack-single-stim,58,107725,0.0-4.0,go_nogo_deval,412,,<div class = centerbox><p class = block-text><br>Please take this time to read your feedback and to take a short break! Press enter to continue</p><p class = block-text><strong>Average reaction time:  523 ms. Accuracy: 89%</strong></p><p class = block-text>Done with this practice.</p></div>,13,12049,,,,,,,,,,,,,35131,13,35131,0,main_stop_intro_phase3,poldrack-single-stim,59,142856,0.0-5.0,go_nogo_deval,412,,"<div class = centerbox><p class = block-text>We will now start the main phase of the experiment.<br><br>These trials are the same as the trials that you have just completed. <br><br>The rules for each shape are as follows:  <br><ul list-text><li>pentagon: spacebar</li><li>rhombus: spacebar</li><li>circle: no response</li><li>triangle: no response</li></ul></p><p class = block-text>Remember these rules before you proceed, as they will no longer be presented during the trial.</p><p class = block-text>Press <strong> enter</strong> to begin.</p></div>",13,35131,,,,,,,,,,,,,2713,13,2713,0,practice-no-stop-feedback,poldrack-single-stim,60,145570,0.0-6.0-0.0,go_nogo_deval,412,,"<div class = centerbox><p class = block-text>We will now start with a test session. In this test, concentrate on responding quickly and accurately to each stimuli unless it requires no response.</p><p class = block-text>Press enter to continue.</p></div>",13,2713,,,,,,,,,,,,,-1,-1,500,0,fixation,poldrack-single-stim,61,146071,0.0-6.0-1.0,go_nogo_deval,412,,<div class = centerbox><div class = fixation>+</div></div>,none,500,test,,,,,,,,,,,,589,32,850,0,stim,poldrack-single-stim,62,146923,0.0-6.0-2.0,go_nogo_deval,412,,<img class = center src='/static/experiments/go_nogo_deval/images/blue_triangle.png'></img>,32,850,test,blue_triangle,nogo2,-1,0,0,,,,,,,-1,-1,1400,0,ITI,poldrack-single-stim,63,148325,0.0-6.0-3.0,go_nogo_deval,412,,<div></div>,32,1400,test,,,,,,,,,,,,-1,-1,500,0,fixation,poldrack-single-stim,64,148826,0.0-6.0-4.0,go_nogo_deval,412,,<div class = centerbox><div class = fixation>+</div></div>,none,500,test,,,,,,,,,,,,523,32,850,0,stim,poldrack-single-stim,65,149678,0.0-6.0-5.0,go_nogo_deval,412,,<img class = center src='/static/experiments/go_nogo_deval/images/purple_pentagon.png'></img>,32,850,test,purple_pentagon,go1,32,1,0,,,,,,,-1,-1,1400,0,ITI,poldrack-single-stim,66,151080,0.0-6.0-6.0,go_nogo_deval,412,,<div></div>,32,1400,test,,,,,,,,,,,,-1,-1,500,0,fixation,poldrack-single-stim,67,151582,0.0-6.0-7.0,go_nogo_deval,412,,<div class = centerbox><div class = fixation>+</div></div>,none,500,test,,,,,,,,,,,,400,32,850,0,stim,poldrack-single-stim,68,152434,0.0-6.0-8.0,go_nogo_deval,412,,<img class = center src='/static/experiments/go_nogo_deval/images/purple_pentagon.png'></img>,32,850,test,purple_pentagon,go1,32,2,0,,,,,,,-1,-1,1400,0,ITI,poldrack-single-stim,69,153835,0.0-6.0-9.0,go_nogo_deval,412,,<div></div>,32,1400,test,,,,,,,,,,,,-1,-1,500,0,fixation,poldrack-single-stim,70,154337,0.0-6.0-10.0,go_nogo_deval,412,,<div class = centerbox><div class = fixation>+</div></div>,none,500,test,,,,,,,,,,,,390,32,850,0,stim,poldrack-single-stim,71,155188,0.0-6.0-11.0,go_nogo_deval,412,,<img class = center src='/static/experiments/go_nogo_deval/images/purple_pentagon.png'></img>,32,850,test,purple_pentagon,go1,32,3,0,,,,,,,-1,-1,1400,0,ITI,poldrack-single-stim,72,156590,0.0-6.0-12.0,go_nogo_deval,412,,<div></div>,32,1400,test,,,,,,,,,,,,-1,-1,500,0,fixation,poldrack-single-stim,73,157091,0.0-6.0-13.0,go_nogo_deval,412,,<div class = centerbox><div class = fixation>+</div></div>,none,500,test,,,,,,,,,,,,515,32,850,0,stim,poldrack-single-stim,74,157943,0.0-6.0-14.0,go_nogo_deval,412,,<img class = center src='/static/experiments/go_nogo_deval/images/green_rhombus.png'></img>,32,850,test,green_rhombus,go2,32,4,0,,,,,,,-1,-1,1400,0,ITI,poldrack-single-stim,75,159345,0.0-6.0-15.0,go_nogo_deval,412,,<div></div>,32,1400,test,,,,,,,,,,,,-1,-1,500,0,fixation,poldrack-single-stim,76,159847,0.0-6.0-16.0,go_nogo_deval,412,,<div class = centerbox><div class = fixation>+</div></div>,none,500,test,,,,,,,,,,,,358,32,850,0,stim,poldrack-single-stim,77,160699,0.0-6.0-17.0,go_nogo_deval,412,,<img class = center src='/static/experiments/go_nogo_deval/images/blue_triangle.png'></img>,32,850,test,blue_triangle,nogo2,-1,5,0,,,,,,,-1,-1,1400,0,ITI,poldrack-single-stim,78,162101,0.0-6.0-18.0,go_nogo_deval,412,,<div></div>,32,1400,test,,,,,,,,,,,,-1,-1,500,0,fixation,poldrack-single-stim,79,162603,0.0-6.0-19.0,go_nogo_deval,412,,<div class = centerbox><div class = fixation>+</div></div>,none,500,test,,,,,,,,,,,,460,32,850,0,stim,poldrack-single-stim,80,163455,0.0-6.0-20.0,go_nogo_deval,412,,<img class = center src='/static/experiments/go_nogo_deval/images/purple_pentagon.png'></img>,32,850,test,purple_pentagon,go1,32,6,0,,,,,,,-1,-1,1400,0,ITI,poldrack-single-stim,81,164858,0.0-6.0-21.0,go_nogo_deval,412,,<div></div>,32,1400,test,,,,,,,,,,,,-1,-1,500,0,fixation,poldrack-single-stim,82,165360,0.0-6.0-22.0,go_nogo_deval,412,,<div class = centerbox><div class = fixation>+</div></div>,none,500,test,,,,,,,,,,,,-1,-1,850,0,stim,poldrack-single-stim,83,166211,0.0-6.0-23.0,go_nogo_deval,412,,<img class = center src='/static/experiments/go_nogo_deval/images/blue_triangle.png'></img>,32,850,test,blue_triangle,nogo2,-1,7,0,,,,,,,-1,-1,1400,0,ITI,poldrack-single-stim,84,167613,0.0-6.0-24.0,go_nogo_deval,412,,<div></div>,32,1400,test,,,,,,,,,,,,-1,-1,500,0,fixation,poldrack-single-stim,85,168113,0.0-6.0-25.0,go_nogo_deval,412,,<div class = centerbox><div class = fixation>+</div></div>,none,500,test,,,,,,,,,,,,-1,-1,850,0,stim,poldrack-single-stim,86,168965,0.0-6.0-26.0,go_nogo_deval,412,,<img class = center src='/static/experiments/go_nogo_deval/images/red_circle.png'></img>,32,850,test,red_circle,nogo1,-1,8,0,,,,,,,-1,-1,1400,0,ITI,poldrack-single-stim,87,170367,0.0-6.0-27.0,go_nogo_deval,412,,<div></div>,32,1400,test,,,,,,,,,,,,-1,-1,500,0,fixation,poldrack-single-stim,88,170869,0.0-6.0-28.0,go_nogo_deval,412,,<div class = centerbox><div class = fixation>+</div></div>,none,500,test,,,,,,,,,,,,-1,-1,850,0,stim,poldrack-single-stim,89,171721,0.0-6.0-29.0,go_nogo_deval,412,,<img class = center src='/static/experiments/go_nogo_deval/images/blue_triangle.png'></img>,32,850,test,blue_triangle,nogo2,-1,9,0,,,,,,,-1,-1,1400,0,ITI,poldrack-single-stim,90,173123,0.0-6.0-30.0,go_nogo_deval,412,,<div></div>,32,1400,test,,,,,,,,,,,,-1,-1,500,0,fixation,poldrack-single-stim,91,173624,0.0-6.0-31.0,go_nogo_deval,412,,<div class = centerbox><div class = fixation>+</div></div>,none,500,test,,,,,,,,,,,,453,32,850,0,stim,poldrack-single-stim,92,174475,0.0-6.0-32.0,go_nogo_deval,412,,<img class = center src='/static/experiments/go_nogo_deval/images/purple_pentagon.png'></img>,32,850,test,purple_pentagon,go1,32,10,0,,,,,,,-1,-1,1400,0,ITI,poldrack-single-stim,93,175876,0.0-6.0-33.0,go_nogo_deval,412,,<div></div>,32,1400,test,,,,,,,,,,,,-1,-1,500,0,fixation,poldrack-single-stim,94,176378,0.0-6.0-34.0,go_nogo_deval,412,,<div class = centerbox><div class = fixation>+</div></div>,none,500,test,,,,,,,,,,,,669,32,850,0,stim,poldrack-single-stim,95,177230,0.0-6.0-35.0,go_nogo_deval,412,,<img class = center src='/static/experiments/go_nogo_deval/images/green_rhombus.png'></img>,32,850,test,green_rhombus,go2,32,11,0,,,,,,,-1,-1,1400,0,ITI,poldrack-single-stim,96,178632,0.0-6.0-36.0,go_nogo_deval,412,,<div></div>,32,1400,test,,,,,,,,,,,,-1,-1,500,0,fixation,poldrack-single-stim,97,179134,0.0-6.0-37.0,go_nogo_deval,412,,<div class = centerbox><div class = fixation>+</div></div>,none,500,test,,,,,,,,,,,,602,32,850,0,stim,poldrack-single-stim,98,179985,0.0-6.0-38.0,go_nogo_deval,412,,<img class = center src='/static/experiments/go_nogo_deval/images/purple_pentagon.png'></img>,32,850,test,purple_pentagon,go1,32,12,0,,,,,,,-1,-1,1400,0,ITI,poldrack-single-stim,99,181387,0.0-6.0-39.0,go_nogo_deval,412,,<div></div>,32,1400,test,,,,,,,,,,,,-1,-1,500,0,fixation,poldrack-single-stim,100,181889,0.0-6.0-40.0,go_nogo_deval,412,,<div class = centerbox><div class = fixation>+</div></div>,none,500,test,,,,,,,,,,,,-1,-1,850,0,stim,poldrack-single-stim,101,182741,0.0-6.0-41.0,go_nogo_deval,412,,<img class = center src='/static/experiments/go_nogo_deval/images/red_circle.png'></img>,32,850,test,red_circle,nogo1,-1,13,0,,,,,,,-1,-1,1400,0,ITI,poldrack-single-stim,102,184142,0.0-6.0-42.0,go_nogo_deval,412,,<div></div>,32,1400,test,,,,,,,,,,,,-1,-1,500,0,fixation,poldrack-single-stim,103,184643,0.0-6.0-43.0,go_nogo_deval,412,,<div class = centerbox><div class = fixation>+</div></div>,none,500,test,,,,,,,,,,,,447,32,850,0,stim,poldrack-single-stim,104,185494,0.0-6.0-44.0,go_nogo_deval,412,,<img class = center src='/static/experiments/go_nogo_deval/images/green_rhombus.png'></img>,32,850,test,green_rhombus,go2,32,14,0,,,,,,,-1,-1,1400,0,ITI,poldrack-single-stim,105,186896,0.0-6.0-45.0,go_nogo_deval,412,,<div></div>,32,1400,test,,,,,,,,,,,,-1,-1,500,0,fixation,poldrack-single-stim,106,187398,0.0-6.0-46.0,go_nogo_deval,412,,<div class = centerbox><div class = fixation>+</div></div>,none,500,test,,,,,,,,,,,,-1,-1,850,0,stim,poldrack-single-stim,107,188250,0.0-6.0-47.0,go_nogo_deval,412,,<img class = center src='/static/experiments/go_nogo_deval/images/red_circle.png'></img>,32,850,test,red_circle,nogo1,-1,15,0,,,,,,,-1,-1,1400,0,ITI,poldrack-single-stim,108,189653,0.0-6.0-48.0,go_nogo_deval,412,,<div></div>,32,1400,test,,,,,,,,,,,,-1,-1,500,0,fixation,poldrack-single-stim,109,190155,0.0-6.0-49.0,go_nogo_deval,412,,<div class = centerbox><div class = fixation>+</div></div>,none,500,test,,,,,,,,,,,,505,32,850,0,stim,poldrack-single-stim,110,191006,0.0-6.0-50.0,go_nogo_deval,412,,<img class = center src='/static/experiments/go_nogo_deval/images/green_rhombus.png'></img>,32,850,test,green_rhombus,go2,32,16,0,,,,,,,-1,-1,1400,0,ITI,poldrack-single-stim,111,192408,0.0-6.0-51.0,go_nogo_deval,412,,<div></div>,32,1400,test,,,,,,,,,,,,-1,-1,500,0,fixation,poldrack-single-stim,112,192909,0.0-6.0-52.0,go_nogo_deval,412,,<div class = centerbox><div class = fixation>+</div></div>,none,500,test,,,,,,,,,,,,529,32,850,0,stim,poldrack-single-stim,113,193760,0.0-6.0-53.0,go_nogo_deval,412,,<img class = center src='/static/experiments/go_nogo_deval/images/purple_pentagon.png'></img>,32,850,test,purple_pentagon,go1,32,17,0,,,,,,,-1,-1,1400,0,ITI,poldrack-single-stim,114,195162,0.0-6.0-54.0,go_nogo_deval,412,,<div></div>,32,1400,test,,,,,,,,,,,,-1,-1,500,0,fixation,poldrack-single-stim,115,195664,0.0-6.0-55.0,go_nogo_deval,412,,<div class = centerbox><div class = fixation>+</div></div>,none,500,test,,,,,,,,,,,,588,32,850,0,stim,poldrack-single-stim,116,196515,0.0-6.0-56.0,go_nogo_deval,412,,<img class = center src='/static/experiments/go_nogo_deval/images/green_rhombus.png'></img>,32,850,test,green_rhombus,go2,32,18,0,,,,,,,-1,-1,1400,0,ITI,poldrack-single-stim,117,197916,0.0-6.0-57.0,go_nogo_deval,412,,<div></div>,32,1400,test,,,,,,,,,,,,-1,-1,500,0,fixation,poldrack-single-stim,118,198418,0.0-6.0-58.0,go_nogo_deval,412,,<div class = centerbox><div class = fixation>+</div></div>,none,500,test,,,,,,,,,,,,-1,-1,850,0,stim,poldrack-single-stim,119,199269,0.0-6.0-59.0,go_nogo_deval,412,,<img class = center src='/static/experiments/go_nogo_deval/images/blue_triangle.png'></img>,32,850,test,blue_triangle,nogo2,-1,19,0,,,,,,,-1,-1,1400,0,ITI,poldrack-single-stim,120,200671,0.0-6.0-60.0,go_nogo_deval,412,,<div></div>,32,1400,test,,,,,,,,,,,,-1,-1,500,0,fixation,poldrack-single-stim,121,201173,0.0-6.0-61.0,go_nogo_deval,412,,<div class = centerbox><div class = fixation>+</div></div>,none,500,test,,,,,,,,,,,,-1,-1,850,0,stim,poldrack-single-stim,122,202024,0.0-6.0-62.0,go_nogo_deval,412,,<img class = center src='/static/experiments/go_nogo_deval/images/blue_triangle.png'></img>,32,850,test,blue_triangle,nogo2,-1,20,0,,,,,,,-1,-1,1400,0,ITI,poldrack-single-stim,123,203425,0.0-6.0-63.0,go_nogo_deval,412,,<div></div>,32,1400,test,,,,,,,,,,,,-1,-1,500,0,fixation,poldrack-single-stim,124,203927,0.0-6.0-64.0,go_nogo_deval,412,,<div class = centerbox><div class = fixation>+</div></div>,none,500,test,,,,,,,,,,,,402,32,850,0,stim,poldrack-single-stim,125,204779,0.0-6.0-65.0,go_nogo_deval,412,,<img class = center src='/static/experiments/go_nogo_deval/images/red_circle.png'></img>,32,850,test,red_circle,nogo1,-1,21,0,,,,,,,-1,-1,1400,0,ITI,poldrack-single-stim,126,206181,0.0-6.0-66.0,go_nogo_deval,412,,<div></div>,32,1400,test,,,,,,,,,,,,-1,-1,500,0,fixation,poldrack-single-stim,127,206682,0.0-6.0-67.0,go_nogo_deval,412,,<div class = centerbox><div class = fixation>+</div></div>,none,500,test,,,,,,,,,,,,493,32,850,0,stim,poldrack-single-stim,128,207533,0.0-6.0-68.0,go_nogo_deval,412,,<img class = center src='/static/experiments/go_nogo_deval/images/green_rhombus.png'></img>,32,850,test,green_rhombus,go2,32,22,0,,,,,,,-1,-1,1400,0,ITI,poldrack-single-stim,129,208934,0.0-6.0-69.0,go_nogo_deval,412,,<div></div>,32,1400,test,,,,,,,,,,,,-1,-1,500,0,fixation,poldrack-single-stim,130,209436,0.0-6.0-70.0,go_nogo_deval,412,,<div class = centerbox><div class = fixation>+</div></div>,none,500,test,,,,,,,,,,,,596,32,850,0,stim,poldrack-single-stim,131,210287,0.0-6.0-71.0,go_nogo_deval,412,,<img class = center src='/static/experiments/go_nogo_deval/images/green_rhombus.png'></img>,32,850,test,green_rhombus,go2,32,23,0,,,,,,,-1,-1,1400,0,ITI,poldrack-single-stim,132,211689,0.0-6.0-72.0,go_nogo_deval,412,,<div></div>,32,1400,test,,,,,,,,,,,,-1,-1,500,0,fixation,poldrack-single-stim,133,212191,0.0-6.0-73.0,go_nogo_deval,412,,<div class = centerbox><div class = fixation>+</div></div>,none,500,test,,,,,,,,,,,,653,32,850,0,stim,poldrack-single-stim,134,213043,0.0-6.0-74.0,go_nogo_deval,412,,<img class = center src='/static/experiments/go_nogo_deval/images/green_rhombus.png'></img>,32,850,test,green_rhombus,go2,32,24,0,,,,,,,-1,-1,1400,0,ITI,poldrack-single-stim,135,214445,0.0-6.0-75.0,go_nogo_deval,412,,<div></div>,32,1400,test,,,,,,,,,,,,-1,-1,500,0,fixation,poldrack-single-stim,136,214947,0.0-6.0-76.0,go_nogo_deval,412,,<div class = centerbox><div class = fixation>+</div></div>,none,500,test,,,,,,,,,,,,485,32,850,0,stim,poldrack-single-stim,137,215799,0.0-6.0-77.0,go_nogo_deval,412,,<img class = center src='/static/experiments/go_nogo_deval/images/purple_pentagon.png'></img>,32,850,test,purple_pentagon,go1,32,25,0,,,,,,,-1,-1,1400,0,ITI,poldrack-single-stim,138,217200,0.0-6.0-78.0,go_nogo_deval,412,,<div></div>,32,1400,test,,,,,,,,,,,,-1,-1,500,0,fixation,poldrack-single-stim,139,217702,0.0-6.0-79.0,go_nogo_deval,412,,<div class = centerbox><div class = fixation>+</div></div>,none,500,test,,,,,,,,,,,,521,32,850,0,stim,poldrack-single-stim,140,218554,0.0-6.0-80.0,go_nogo_deval,412,,<img class = center src='/static/experiments/go_nogo_deval/images/purple_pentagon.png'></img>,32,850,test,purple_pentagon,go1,32,26,0,,,,,,,-1,-1,1400,0,ITI,poldrack-single-stim,141,219956,0.0-6.0-81.0,go_nogo_deval,412,,<div></div>,32,1400,test,,,,,,,,,,,,-1,-1,500,0,fixation,poldrack-single-stim,142,220457,0.0-6.0-82.0,go_nogo_deval,412,,<div class = centerbox><div class = fixation>+</div></div>,none,500,test,,,,,,,,,,,,-1,-1,850,0,stim,poldrack-single-stim,143,221309,0.0-6.0-83.0,go_nogo_deval,412,,<img class = center src='/static/experiments/go_nogo_deval/images/blue_triangle.png'></img>,32,850,test,blue_triangle,nogo2,-1,27,0,,,,,,,-1,-1,1400,0,ITI,poldrack-single-stim,144,222711,0.0-6.0-84.0,go_nogo_deval,412,,<div></div>,32,1400,test,,,,,,,,,,,,-1,-1,500,0,fixation,poldrack-single-stim,145,223213,0.0-6.0-85.0,go_nogo_deval,412,,<div class = centerbox><div class = fixation>+</div></div>,none,500,test,,,,,,,,,,,,-1,-1,850,0,stim,poldrack-single-stim,146,224064,0.0-6.0-86.0,go_nogo_deval,412,,<img class = center src='/static/experiments/go_nogo_deval/images/red_circle.png'></img>,32,850,test,red_circle,nogo1,-1,28,0,,,,,,,-1,-1,1400,0,ITI,poldrack-single-stim,147,225466,0.0-6.0-87.0,go_nogo_deval,412,,<div></div>,32,1400,test,,,,,,,,,,,,-1,-1,500,0,fixation,poldrack-single-stim,148,225967,0.0-6.0-88.0,go_nogo_deval,412,,<div class = centerbox><div class = fixation>+</div></div>,none,500,test,,,,,,,,,,,,-1,-1,850,0,stim,poldrack-single-stim,149,226818,0.0-6.0-89.0,go_nogo_deval,412,,<img class = center src='/static/experiments/go_nogo_deval/images/red_circle.png'></img>,32,850,test,red_circle,nogo1,-1,29,0,,,,,,,-1,-1,1400,0,ITI,poldrack-single-stim,150,228221,0.0-6.0-90.0,go_nogo_deval,412,,<div></div>,32,1400,test,,,,,,,,,,,,-1,-1,500,0,fixation,poldrack-single-stim,151,228722,0.0-6.0-91.0,go_nogo_deval,412,,<div class = centerbox><div class = fixation>+</div></div>,none,500,test,,,,,,,,,,,,458,32,850,0,stim,poldrack-single-stim,152,229575,0.0-6.0-92.0,go_nogo_deval,412,,<img class = center src='/static/experiments/go_nogo_deval/images/purple_pentagon.png'></img>,32,850,test,purple_pentagon,go1,32,30,0,,,,,,,-1,-1,1400,0,ITI,poldrack-single-stim,153,230977,0.0-6.0-93.0,go_nogo_deval,412,,<div></div>,32,1400,test,,,,,,,,,,,,-1,-1,500,0,fixation,poldrack-single-stim,154,231478,0.0-6.0-94.0,go_nogo_deval,412,,<div class = centerbox><div class = fixation>+</div></div>,none,500,test,,,,,,,,,,,,390,32,850,0,stim,poldrack-single-stim,155,232330,0.0-6.0-95.0,go_nogo_deval,412,,<img class = center src='/static/experiments/go_nogo_deval/images/green_rhombus.png'></img>,32,850,test,green_rhombus,go2,32,31,0,,,,,,,-1,-1,1400,0,ITI,poldrack-single-stim,156,233732,0.0-6.0-96.0,go_nogo_deval,412,,<div></div>,32,1400,test,,,,,,,,,,,,-1,-1,500,0,fixation,poldrack-single-stim,157,234233,0.0-6.0-97.0,go_nogo_deval,412,,<div class = centerbox><div class = fixation>+</div></div>,none,500,test,,,,,,,,,,,,527,32,850,0,stim,poldrack-single-stim,158,235084,0.0-6.0-98.0,go_nogo_deval,412,,<img class = center src='/static/experiments/go_nogo_deval/images/purple_pentagon.png'></img>,32,850,test,purple_pentagon,go1,32,32,0,,,,,,,-1,-1,1400,0,ITI,poldrack-single-stim,159,236486,0.0-6.0-99.0,go_nogo_deval,412,,<div></div>,32,1400,test,,,,,,,,,,,,-1,-1,500,0,fixation,poldrack-single-stim,160,236988,0.0-6.0-100.0,go_nogo_deval,412,,<div class = centerbox><div class = fixation>+</div></div>,none,500,test,,,,,,,,,,,,517,32,850,0,stim,poldrack-single-stim,161,237840,0.0-6.0-101.0,go_nogo_deval,412,,<img class = center src='/static/experiments/go_nogo_deval/images/green_rhombus.png'></img>,32,850,test,green_rhombus,go2,32,33,0,,,,,,,-1,-1,1400,0,ITI,poldrack-single-stim,162,239241,0.0-6.0-102.0,go_nogo_deval,412,,<div></div>,32,1400,test,,,,,,,,,,,,-1,-1,500,0,fixation,poldrack-single-stim,163,239742,0.0-6.0-103.0,go_nogo_deval,412,,<div class = centerbox><div class = fixation>+</div></div>,none,500,test,,,,,,,,,,,,-1,-1,850,0,stim,poldrack-single-stim,164,240594,0.0-6.0-104.0,go_nogo_deval,412,,<img class = center src='/static/experiments/go_nogo_deval/images/red_circle.png'></img>,32,850,test,red_circle,nogo1,-1,34,0,,,,,,,-1,-1,1400,0,ITI,poldrack-single-stim,165,241996,0.0-6.0-105.0,go_nogo_deval,412,,<div></div>,32,1400,test,,,,,,,,,,,,-1,-1,500,0,fixation,poldrack-single-stim,166,242497,0.0-6.0-106.0,go_nogo_deval,412,,<div class = centerbox><div class = fixation>+</div></div>,none,500,test,,,,,,,,,,,,420,32,850,0,stim,poldrack-single-stim,167,243349,0.0-6.0-107.0,go_nogo_deval,412,,<img class = center src='/static/experiments/go_nogo_deval/images/green_rhombus.png'></img>,32,850,test,green_rhombus,go2,32,35,0,,,,,,,-1,-1,1400,0,ITI,poldrack-single-stim,168,244751,0.0-6.0-108.0,go_nogo_deval,412,,<div></div>,32,1400,test,,,,,,,,,,,,-1,-1,500,0,fixation,poldrack-single-stim,169,245251,0.0-6.0-109.0,go_nogo_deval,412,,<div class = centerbox><div class = fixation>+</div></div>,none,500,test,,,,,,,,,,,,578,32,850,0,stim,poldrack-single-stim,170,246103,0.0-6.0-110.0,go_nogo_deval,412,,<img class = center src='/static/experiments/go_nogo_deval/images/green_rhombus.png'></img>,32,850,test,green_rhombus,go2,32,36,0,,,,,,,-1,-1,1400,0,ITI,poldrack-single-stim,171,247505,0.0-6.0-111.0,go_nogo_deval,412,,<div></div>,32,1400,test,,,,,,,,,,,,-1,-1,500,0,fixation,poldrack-single-stim,172,248007,0.0-6.0-112.0,go_nogo_deval,412,,<div class = centerbox><div class = fixation>+</div></div>,none,500,test,,,,,,,,,,,,444,32,850,0,stim,poldrack-single-stim,173,248859,0.0-6.0-113.0,go_nogo_deval,412,,<img class = center src='/static/experiments/go_nogo_deval/images/purple_pentagon.png'></img>,32,850,test,purple_pentagon,go1,32,37,0,,,,,,,-1,-1,1400,0,ITI,poldrack-single-stim,174,250261,0.0-6.0-114.0,go_nogo_deval,412,,<div></div>,32,1400,test,,,,,,,,,,,,-1,-1,500,0,fixation,poldrack-single-stim,175,250761,0.0-6.0-115.0,go_nogo_deval,412,,<div class = centerbox><div class = fixation>+</div></div>,none,500,test,,,,,,,,,,,,525,32,850,0,stim,poldrack-single-stim,176,251612,0.0-6.0-116.0,go_nogo_deval,412,,<img class = center src='/static/experiments/go_nogo_deval/images/purple_pentagon.png'></img>,32,850,test,purple_pentagon,go1,32,38,0,,,,,,,-1,-1,1400,0,ITI,poldrack-single-stim,177,253014,0.0-6.0-117.0,go_nogo_deval,412,,<div></div>,32,1400,test,,,,,,,,,,,,-1,-1,500,0,fixation,poldrack-single-stim,178,253516,0.0-6.0-118.0,go_nogo_deval,412,,<div class = centerbox><div class = fixation>+</div></div>,none,500,test,,,,,,,,,,,,516,32,850,0,stim,poldrack-single-stim,179,254368,0.0-6.0-119.0,go_nogo_deval,412,,<img class = center src='/static/experiments/go_nogo_deval/images/green_rhombus.png'></img>,32,850,test,green_rhombus,go2,32,39,0,,,,,,,-1,-1,1400,0,ITI,poldrack-single-stim,180,255769,0.0-6.0-120.0,go_nogo_deval,412,,<div></div>,32,1400,test,,,,,,,,,,,,-1,-1,500,0,fixation,poldrack-single-stim,181,256271,0.0-6.0-121.0,go_nogo_deval,412,,<div class = centerbox><div class = fixation>+</div></div>,none,500,test,,,,,,,,,,,,426,32,850,0,stim,poldrack-single-stim,182,257123,0.0-6.0-122.0,go_nogo_deval,412,,<img class = center src='/static/experiments/go_nogo_deval/images/green_rhombus.png'></img>,32,850,test,green_rhombus,go2,32,40,0,,,,,,,-1,-1,1400,0,ITI,poldrack-single-stim,183,258524,0.0-6.0-123.0,go_nogo_deval,412,,<div></div>,32,1400,test,,,,,,,,,,,,-1,-1,500,0,fixation,poldrack-single-stim,184,259026,0.0-6.0-124.0,go_nogo_deval,412,,<div class = centerbox><div class = fixation>+</div></div>,none,500,test,,,,,,,,,,,,462,32,850,0,stim,poldrack-single-stim,185,259876,0.0-6.0-125.0,go_nogo_deval,412,,<img class = center src='/static/experiments/go_nogo_deval/images/purple_pentagon.png'></img>,32,850,test,purple_pentagon,go1,32,41,0,,,,,,,-1,-1,1400,0,ITI,poldrack-single-stim,186,261278,0.0-6.0-126.0,go_nogo_deval,412,,<div></div>,32,1400,test,,,,,,,,,,,,-1,-1,500,0,fixation,poldrack-single-stim,187,261780,0.0-6.0-127.0,go_nogo_deval,412,,<div class = centerbox><div class = fixation>+</div></div>,none,500,test,,,,,,,,,,,,363,32,850,0,stim,poldrack-single-stim,188,262632,0.0-6.0-128.0,go_nogo_deval,412,,<img class = center src='/static/experiments/go_nogo_deval/images/purple_pentagon.png'></img>,32,850,test,purple_pentagon,go1,32,42,0,,,,,,,-1,-1,1400,0,ITI,poldrack-single-stim,189,264033,0.0-6.0-129.0,go_nogo_deval,412,,<div></div>,32,1400,test,,,,,,,,,,,,-1,-1,500,0,fixation,poldrack-single-stim,190,264534,0.0-6.0-130.0,go_nogo_deval,412,,<div class = centerbox><div class = fixation>+</div></div>,none,500,test,,,,,,,,,,,,-1,-1,850,0,stim,poldrack-single-stim,191,265386,0.0-6.0-131.0,go_nogo_deval,412,,<img class = center src='/static/experiments/go_nogo_deval/images/blue_triangle.png'></img>,32,850,test,blue_triangle,nogo2,-1,43,0,,,,,,,-1,-1,1400,0,ITI,poldrack-single-stim,192,266788,0.0-6.0-132.0,go_nogo_deval,412,,<div></div>,32,1400,test,,,,,,,,,,,,-1,-1,500,0,fixation,poldrack-single-stim,193,267289,0.0-6.0-133.0,go_nogo_deval,412,,<div class = centerbox><div class = fixation>+</div></div>,none,500,test,,,,,,,,,,,,502,32,850,0,stim,poldrack-single-stim,194,268141,0.0-6.0-134.0,go_nogo_deval,412,,<img class = center src='/static/experiments/go_nogo_deval/images/purple_pentagon.png'></img>,32,850,test,purple_pentagon,go1,32,44,0,,,,,,,-1,-1,1400,0,ITI,poldrack-single-stim,195,269542,0.0-6.0-135.0,go_nogo_deval,412,,<div></div>,32,1400,test,,,,,,,,,,,,-1,-1,500,0,fixation,poldrack-single-stim,196,270044,0.0-6.0-136.0,go_nogo_deval,412,,<div class = centerbox><div class = fixation>+</div></div>,none,500,test,,,,,,,,,,,,458,32,850,0,stim,poldrack-single-stim,197,270894,0.0-6.0-137.0,go_nogo_deval,412,,<img class = center src='/static/experiments/go_nogo_deval/images/green_rhombus.png'></img>,32,850,test,green_rhombus,go2,32,45,0,,,,,,,-1,-1,1400,0,ITI,poldrack-single-stim,198,272296,0.0-6.0-138.0,go_nogo_deval,412,,<div></div>,32,1400,test,,,,,,,,,,,,-1,-1,500,0,fixation,poldrack-single-stim,199,272798,0.0-6.0-139.0,go_nogo_deval,412,,<div class = centerbox><div class = fixation>+</div></div>,none,500,test,,,,,,,,,,,,482,32,850,0,stim,poldrack-single-stim,200,273649,0.0-6.0-140.0,go_nogo_deval,412,,<img class = center src='/static/experiments/go_nogo_deval/images/green_rhombus.png'></img>,32,850,test,green_rhombus,go2,32,46,0,,,,,,,-1,-1,1400,0,ITI,poldrack-single-stim,201,275050,0.0-6.0-141.0,go_nogo_deval,412,,<div></div>,32,1400,test,,,,,,,,,,,,-1,-1,500,0,fixation,poldrack-single-stim,202,275551,0.0-6.0-142.0,go_nogo_deval,412,,<div class = centerbox><div class = fixation>+</div></div>,none,500,test,,,,,,,,,,,,-1,-1,850,0,stim,poldrack-single-stim,203,276402,0.0-6.0-143.0,go_nogo_deval,412,,<img class = center src='/static/experiments/go_nogo_deval/images/red_circle.png'></img>,32,850,test,red_circle,nogo1,-1,47,0,,,,,,,-1,-1,1400,0,ITI,poldrack-single-stim,204,277804,0.0-6.0-144.0,go_nogo_deval,412,,<div></div>,32,1400,test,,,,,,,,,,,,9199,13,9199,0,practice-no-stop-feedback,poldrack-single-stim,205,287006,0.0-6.1-0.1,go_nogo_deval,412,,"<div class = centerbox><p class = block-text><br>Please take this time to read your feedback and to take a short break! Press enter to continue</p><p class = block-text><strong>Average reaction time:  493 ms. Accuracy: 94%</strong></p><p class = block-text>We have detected a number of trials that <strong>required no response</strong>, where a response was made.  Please <strong>ensure that you do not respond </strong>to shapes that require no response</p></div>",13,9199,,,,,,,,,,,,,-1,-1,500,0,fixation,poldrack-single-stim,206,287508,0.0-6.1-1.1,go_nogo_deval,412,,<div class = centerbox><div class = fixation>+</div></div>,none,500,test,,,,,,,,,,,,-1,-1,850,0,stim,poldrack-single-stim,207,288360,0.0-6.1-2.1,go_nogo_deval,412,,<img class = center src='/static/experiments/go_nogo_deval/images/blue_triangle.png'></img>,32,850,test,blue_triangle,nogo2,-1,0,1,,,,,,,-1,-1,1400,0,ITI,poldrack-single-stim,208,289762,0.0-6.1-3.1,go_nogo_deval,412,,<div></div>,32,1400,test,,,,,,,,,,,,-1,-1,500,0,fixation,poldrack-single-stim,209,290264,0.0-6.1-4.1,go_nogo_deval,412,,<div class = centerbox><div class = fixation>+</div></div>,none,500,test,,,,,,,,,,,,387,32,850,0,stim,poldrack-single-stim,210,291116,0.0-6.1-5.1,go_nogo_deval,412,,<img class = center src='/static/experiments/go_nogo_deval/images/green_rhombus.png'></img>,32,850,test,green_rhombus,go2,32,1,1,,,,,,,-1,-1,1400,0,ITI,poldrack-single-stim,211,292516,0.0-6.1-6.1,go_nogo_deval,412,,<div></div>,32,1400,test,,,,,,,,,,,,-1,-1,500,0,fixation,poldrack-single-stim,212,293017,0.0-6.1-7.1,go_nogo_deval,412,,<div class = centerbox><div class = fixation>+</div></div>,none,500,test,,,,,,,,,,,,-1,-1,850,0,stim,poldrack-single-stim,213,293869,0.0-6.1-8.1,go_nogo_deval,412,,<img class = center src='/static/experiments/go_nogo_deval/images/blue_triangle.png'></img>,32,850,test,blue_triangle,nogo2,-1,2,1,,,,,,,-1,-1,1400,0,ITI,poldrack-single-stim,214,295271,0.0-6.1-9.1,go_nogo_deval,412,,<div></div>,32,1400,test,,,,,,,,,,,,-1,-1,500,0,fixation,poldrack-single-stim,215,295772,0.0-6.1-10.1,go_nogo_deval,412,,<div class = centerbox><div class = fixation>+</div></div>,none,500,test,,,,,,,,,,,,458,32,850,0,stim,poldrack-single-stim,216,296624,0.0-6.1-11.1,go_nogo_deval,412,,<img class = center src='/static/experiments/go_nogo_deval/images/purple_pentagon.png'></img>,32,850,test,purple_pentagon,go1,32,3,1,,,,,,,-1,-1,1400,0,ITI,poldrack-single-stim,217,298025,0.0-6.1-12.1,go_nogo_deval,412,,<div></div>,32,1400,test,,,,,,,,,,,,-1,-1,500,0,fixation,poldrack-single-stim,218,298527,0.0-6.1-13.1,go_nogo_deval,412,,<div class = centerbox><div class = fixation>+</div></div>,none,500,test,,,,,,,,,,,,494,32,850,0,stim,poldrack-single-stim,219,299378,0.0-6.1-14.1,go_nogo_deval,412,,<img class = center src='/static/experiments/go_nogo_deval/images/green_rhombus.png'></img>,32,850,test,green_rhombus,go2,32,4,1,,,,,,,-1,-1,1400,0,ITI,poldrack-single-stim,220,300780,0.0-6.1-15.1,go_nogo_deval,412,,<div></div>,32,1400,test,,,,,,,,,,,,-1,-1,500,0,fixation,poldrack-single-stim,221,301281,0.0-6.1-16.1,go_nogo_deval,412,,<div class = centerbox><div class = fixation>+</div></div>,none,500,test,,,,,,,,,,,,405,32,850,0,stim,poldrack-single-stim,222,302133,0.0-6.1-17.1,go_nogo_deval,412,,<img class = center src='/static/experiments/go_nogo_deval/images/purple_pentagon.png'></img>,32,850,test,purple_pentagon,go1,32,5,1,,,,,,,-1,-1,1400,0,ITI,poldrack-single-stim,223,303534,0.0-6.1-18.1,go_nogo_deval,412,,<div></div>,32,1400,test,,,,,,,,,,,,-1,-1,500,0,fixation,poldrack-single-stim,224,304036,0.0-6.1-19.1,go_nogo_deval,412,,<div class = centerbox><div class = fixation>+</div></div>,none,500,test,,,,,,,,,,,,531,32,850,0,stim,poldrack-single-stim,225,304887,0.0-6.1-20.1,go_nogo_deval,412,,<img class = center src='/static/experiments/go_nogo_deval/images/green_rhombus.png'></img>,32,850,test,green_rhombus,go2,32,6,1,,,,,,,-1,-1,1400,0,ITI,poldrack-single-stim,226,306289,0.0-6.1-21.1,go_nogo_deval,412,,<div></div>,32,1400,test,,,,,,,,,,,,-1,-1,500,0,fixation,poldrack-single-stim,227,306790,0.0-6.1-22.1,go_nogo_deval,412,,<div class = centerbox><div class = fixation>+</div></div>,none,500,test,,,,,,,,,,,,365,32,850,0,stim,poldrack-single-stim,228,307642,0.0-6.1-23.1,go_nogo_deval,412,,<img class = center src='/static/experiments/go_nogo_deval/images/green_rhombus.png'></img>,32,850,test,green_rhombus,go2,32,7,1,,,,,,,-1,-1,1400,0,ITI,poldrack-single-stim,229,309044,0.0-6.1-24.1,go_nogo_deval,412,,<div></div>,32,1400,test,,,,,,,,,,,,-1,-1,500,0,fixation,poldrack-single-stim,230,309545,0.0-6.1-25.1,go_nogo_deval,412,,<div class = centerbox><div class = fixation>+</div></div>,none,500,test,,,,,,,,,,,,-1,-1,850,0,stim,poldrack-single-stim,231,310397,0.0-6.1-26.1,go_nogo_deval,412,,<img class = center src='/static/experiments/go_nogo_deval/images/red_circle.png'></img>,32,850,test,red_circle,nogo1,-1,8,1,,,,,,,-1,-1,1400,0,ITI,poldrack-single-stim,232,311798,0.0-6.1-27.1,go_nogo_deval,412,,<div></div>,32,1400,test,,,,,,,,,,,,-1,-1,500,0,fixation,poldrack-single-stim,233,312299,0.0-6.1-28.1,go_nogo_deval,412,,<div class = centerbox><div class = fixation>+</div></div>,none,500,test,,,,,,,,,,,,436,32,850,0,stim,poldrack-single-stim,234,313150,0.0-6.1-29.1,go_nogo_deval,412,,<img class = center src='/static/experiments/go_nogo_deval/images/purple_pentagon.png'></img>,32,850,test,purple_pentagon,go1,32,9,1,,,,,,,-1,-1,1400,0,ITI,poldrack-single-stim,235,314551,0.0-6.1-30.1,go_nogo_deval,412,,<div></div>,32,1400,test,,,,,,,,,,,,-1,-1,500,0,fixation,poldrack-single-stim,236,315053,0.0-6.1-31.1,go_nogo_deval,412,,<div class = centerbox><div class = fixation>+</div></div>,none,500,test,,,,,,,,,,,,505,32,850,0,stim,poldrack-single-stim,237,315905,0.0-6.1-32.1,go_nogo_deval,412,,<img class = center src='/static/experiments/go_nogo_deval/images/purple_pentagon.png'></img>,32,850,test,purple_pentagon,go1,32,10,1,,,,,,,-1,-1,1400,0,ITI,poldrack-single-stim,238,317307,0.0-6.1-33.1,go_nogo_deval,412,,<div></div>,32,1400,test,,,,,,,,,,,,-1,-1,500,0,fixation,poldrack-single-stim,239,317807,0.0-6.1-34.1,go_nogo_deval,412,,<div class = centerbox><div class = fixation>+</div></div>,none,500,test,,,,,,,,,,,,394,32,850,0,stim,poldrack-single-stim,240,318658,0.0-6.1-35.1,go_nogo_deval,412,,<img class = center src='/static/experiments/go_nogo_deval/images/purple_pentagon.png'></img>,32,850,test,purple_pentagon,go1,32,11,1,,,,,,,-1,-1,1400,0,ITI,poldrack-single-stim,241,320060,0.0-6.1-36.1,go_nogo_deval,412,,<div></div>,32,1400,test,,,,,,,,,,,,-1,-1,500,0,fixation,poldrack-single-stim,242,320561,0.0-6.1-37.1,go_nogo_deval,412,,<div class = centerbox><div class = fixation>+</div></div>,none,500,test,,,,,,,,,,,,409,32,850,0,stim,poldrack-single-stim,243,321412,0.0-6.1-38.1,go_nogo_deval,412,,<img class = center src='/static/experiments/go_nogo_deval/images/purple_pentagon.png'></img>,32,850,test,purple_pentagon,go1,32,12,1,,,,,,,-1,-1,1400,0,ITI,poldrack-single-stim,244,322814,0.0-6.1-39.1,go_nogo_deval,412,,<div></div>,32,1400,test,,,,,,,,,,,,-1,-1,500,0,fixation,poldrack-single-stim,245,323316,0.0-6.1-40.1,go_nogo_deval,412,,<div class = centerbox><div class = fixation>+</div></div>,none,500,test,,,,,,,,,,,,-1,-1,850,0,stim,poldrack-single-stim,246,324168,0.0-6.1-41.1,go_nogo_deval,412,,<img class = center src='/static/experiments/go_nogo_deval/images/red_circle.png'></img>,32,850,test,red_circle,nogo1,-1,13,1,,,,,,,-1,-1,1400,0,ITI,poldrack-single-stim,247,325568,0.0-6.1-42.1,go_nogo_deval,412,,<div></div>,32,1400,test,,,,,,,,,,,,-1,-1,500,0,fixation,poldrack-single-stim,248,326069,0.0-6.1-43.1,go_nogo_deval,412,,<div class = centerbox><div class = fixation>+</div></div>,none,500,test,,,,,,,,,,,,514,32,850,0,stim,poldrack-single-stim,249,326921,0.0-6.1-44.1,go_nogo_deval,412,,<img class = center src='/static/experiments/go_nogo_deval/images/green_rhombus.png'></img>,32,850,test,green_rhombus,go2,32,14,1,,,,,,,-1,-1,1400,0,ITI,poldrack-single-stim,250,328322,0.0-6.1-45.1,go_nogo_deval,412,,<div></div>,32,1400,test,,,,,,,,,,,,-1,-1,500,0,fixation,poldrack-single-stim,251,328824,0.0-6.1-46.1,go_nogo_deval,412,,<div class = centerbox><div class = fixation>+</div></div>,none,500,test,,,,,,,,,,,,459,32,850,0,stim,poldrack-single-stim,252,329676,0.0-6.1-47.1,go_nogo_deval,412,,<img class = center src='/static/experiments/go_nogo_deval/images/purple_pentagon.png'></img>,32,850,test,purple_pentagon,go1,32,15,1,,,,,,,-1,-1,1400,0,ITI,poldrack-single-stim,253,331077,0.0-6.1-48.1,go_nogo_deval,412,,<div></div>,32,1400,test,,,,,,,,,,,,-1,-1,500,0,fixation,poldrack-single-stim,254,331579,0.0-6.1-49.1,go_nogo_deval,412,,<div class = centerbox><div class = fixation>+</div></div>,none,500,test,,,,,,,,,,,,450,32,850,0,stim,poldrack-single-stim,255,332430,0.0-6.1-50.1,go_nogo_deval,412,,<img class = center src='/static/experiments/go_nogo_deval/images/purple_pentagon.png'></img>,32,850,test,purple_pentagon,go1,32,16,1,,,,,,,-1,-1,1400,0,ITI,poldrack-single-stim,256,333831,0.0-6.1-51.1,go_nogo_deval,412,,<div></div>,32,1400,test,,,,,,,,,,,,-1,-1,500,0,fixation,poldrack-single-stim,257,334333,0.0-6.1-52.1,go_nogo_deval,412,,<div class = centerbox><div class = fixation>+</div></div>,none,500,test,,,,,,,,,,,,451,32,850,0,stim,poldrack-single-stim,258,335185,0.0-6.1-53.1,go_nogo_deval,412,,<img class = center src='/static/experiments/go_nogo_deval/images/blue_triangle.png'></img>,32,850,test,blue_triangle,nogo2,-1,17,1,,,,,,,-1,-1,1400,0,ITI,poldrack-single-stim,259,336587,0.0-6.1-54.1,go_nogo_deval,412,,<div></div>,32,1400,test,,,,,,,,,,,,-1,-1,500,0,fixation,poldrack-single-stim,260,337088,0.0-6.1-55.1,go_nogo_deval,412,,<div class = centerbox><div class = fixation>+</div></div>,none,500,test,,,,,,,,,,,,486,32,850,0,stim,poldrack-single-stim,261,337940,0.0-6.1-56.1,go_nogo_deval,412,,<img class = center src='/static/experiments/go_nogo_deval/images/green_rhombus.png'></img>,32,850,test,green_rhombus,go2,32,18,1,,,,,,,-1,-1,1400,0,ITI,poldrack-single-stim,262,339342,0.0-6.1-57.1,go_nogo_deval,412,,<div></div>,32,1400,test,,,,,,,,,,,,-1,-1,500,0,fixation,poldrack-single-stim,263,339844,0.0-6.1-58.1,go_nogo_deval,412,,<div class = centerbox><div class = fixation>+</div></div>,none,500,test,,,,,,,,,,,,363,32,850,0,stim,poldrack-single-stim,264,340696,0.0-6.1-59.1,go_nogo_deval,412,,<img class = center src='/static/experiments/go_nogo_deval/images/green_rhombus.png'></img>,32,850,test,green_rhombus,go2,32,19,1,,,,,,,-1,-1,1400,0,ITI,poldrack-single-stim,265,342097,0.0-6.1-60.1,go_nogo_deval,412,,<div></div>,32,1400,test,,,,,,,,,,,,-1,-1,500,0,fixation,poldrack-single-stim,266,342598,0.0-6.1-61.1,go_nogo_deval,412,,<div class = centerbox><div class = fixation>+</div></div>,none,500,test,,,,,,,,,,,,-1,-1,850,0,stim,poldrack-single-stim,267,343450,0.0-6.1-62.1,go_nogo_deval,412,,<img class = center src='/static/experiments/go_nogo_deval/images/blue_triangle.png'></img>,32,850,test,blue_triangle,nogo2,-1,20,1,,,,,,,-1,-1,1400,0,ITI,poldrack-single-stim,268,344852,0.0-6.1-63.1,go_nogo_deval,412,,<div></div>,32,1400,test,,,,,,,,,,,,-1,-1,500,0,fixation,poldrack-single-stim,269,345353,0.0-6.1-64.1,go_nogo_deval,412,,<div class = centerbox><div class = fixation>+</div></div>,none,500,test,,,,,,,,,,,,-1,-1,850,0,stim,poldrack-single-stim,270,346205,0.0-6.1-65.1,go_nogo_deval,412,,<img class = center src='/static/experiments/go_nogo_deval/images/blue_triangle.png'></img>,32,850,test,blue_triangle,nogo2,-1,21,1,,,,,,,-1,-1,1400,0,ITI,poldrack-single-stim,271,347607,0.0-6.1-66.1,go_nogo_deval,412,,<div></div>,32,1400,test,,,,,,,,,,,,-1,-1,500,0,fixation,poldrack-single-stim,272,348108,0.0-6.1-67.1,go_nogo_deval,412,,<div class = centerbox><div class = fixation>+</div></div>,none,500,test,,,,,,,,,,,,402,32,850,0,stim,poldrack-single-stim,273,348960,0.0-6.1-68.1,go_nogo_deval,412,,<img class = center src='/static/experiments/go_nogo_deval/images/purple_pentagon.png'></img>,32,850,test,purple_pentagon,go1,32,22,1,,,,,,,-1,-1,1400,0,ITI,poldrack-single-stim,274,350362,0.0-6.1-69.1,go_nogo_deval,412,,<div></div>,32,1400,test,,,,,,,,,,,,-1,-1,500,0,fixation,poldrack-single-stim,275,350864,0.0-6.1-70.1,go_nogo_deval,412,,<div class = centerbox><div class = fixation>+</div></div>,none,500,test,,,,,,,,,,,,436,32,850,0,stim,poldrack-single-stim,276,351716,0.0-6.1-71.1,go_nogo_deval,412,,<img class = center src='/static/experiments/go_nogo_deval/images/green_rhombus.png'></img>,32,850,test,green_rhombus,go2,32,23,1,,,,,,,-1,-1,1400,0,ITI,poldrack-single-stim,277,353118,0.0-6.1-72.1,go_nogo_deval,412,,<div></div>,32,1400,test,,,,,,,,,,,,-1,-1,500,0,fixation,poldrack-single-stim,278,353619,0.0-6.1-73.1,go_nogo_deval,412,,<div class = centerbox><div class = fixation>+</div></div>,none,500,test,,,,,,,,,,,,436,32,850,0,stim,poldrack-single-stim,279,354470,0.0-6.1-74.1,go_nogo_deval,412,,<img class = center src='/static/experiments/go_nogo_deval/images/green_rhombus.png'></img>,32,850,test,green_rhombus,go2,32,24,1,,,,,,,-1,-1,1400,0,ITI,poldrack-single-stim,280,355872,0.0-6.1-75.1,go_nogo_deval,412,,<div></div>,32,1400,test,,,,,,,,,,,,-1,-1,500,0,fixation,poldrack-single-stim,281,356374,0.0-6.1-76.1,go_nogo_deval,412,,<div class = centerbox><div class = fixation>+</div></div>,none,500,test,,,,,,,,,,,,472,32,850,0,stim,poldrack-single-stim,282,357226,0.0-6.1-77.1,go_nogo_deval,412,,<img class = center src='/static/experiments/go_nogo_deval/images/purple_pentagon.png'></img>,32,850,test,purple_pentagon,go1,32,25,1,,,,,,,-1,-1,1400,0,ITI,poldrack-single-stim,283,358628,0.0-6.1-78.1,go_nogo_deval,412,,<div></div>,32,1400,test,,,,,,,,,,,,-1,-1,500,0,fixation,poldrack-single-stim,284,359128,0.0-6.1-79.1,go_nogo_deval,412,,<div class = centerbox><div class = fixation>+</div></div>,none,500,test,,,,,,,,,,,,440,32,850,0,stim,poldrack-single-stim,285,359980,0.0-6.1-80.1,go_nogo_deval,412,,<img class = center src='/static/experiments/go_nogo_deval/images/purple_pentagon.png'></img>,32,850,test,purple_pentagon,go1,32,26,1,,,,,,,-1,-1,1400,0,ITI,poldrack-single-stim,286,361382,0.0-6.1-81.1,go_nogo_deval,412,,<div></div>,32,1400,test,,,,,,,,,,,,-1,-1,500,0,fixation,poldrack-single-stim,287,361884,0.0-6.1-82.1,go_nogo_deval,412,,<div class = centerbox><div class = fixation>+</div></div>,none,500,test,,,,,,,,,,,,419,32,850,0,stim,poldrack-single-stim,288,362736,0.0-6.1-83.1,go_nogo_deval,412,,<img class = center src='/static/experiments/go_nogo_deval/images/purple_pentagon.png'></img>,32,850,test,purple_pentagon,go1,32,27,1,,,,,,,-1,-1,1400,0,ITI,poldrack-single-stim,289,364138,0.0-6.1-84.1,go_nogo_deval,412,,<div></div>,32,1400,test,,,,,,,,,,,,-1,-1,500,0,fixation,poldrack-single-stim,290,364640,0.0-6.1-85.1,go_nogo_deval,412,,<div class = centerbox><div class = fixation>+</div></div>,none,500,test,,,,,,,,,,,,509,32,850,0,stim,poldrack-single-stim,291,365491,0.0-6.1-86.1,go_nogo_deval,412,,<img class = center src='/static/experiments/go_nogo_deval/images/green_rhombus.png'></img>,32,850,test,green_rhombus,go2,32,28,1,,,,,,,-1,-1,1400,0,ITI,poldrack-single-stim,292,366892,0.0-6.1-87.1,go_nogo_deval,412,,<div></div>,32,1400,test,,,,,,,,,,,,-1,-1,500,0,fixation,poldrack-single-stim,293,367394,0.0-6.1-88.1,go_nogo_deval,412,,<div class = centerbox><div class = fixation>+</div></div>,none,500,test,,,,,,,,,,,,432,32,850,0,stim,poldrack-single-stim,294,368245,0.0-6.1-89.1,go_nogo_deval,412,,<img class = center src='/static/experiments/go_nogo_deval/images/green_rhombus.png'></img>,32,850,test,green_rhombus,go2,32,29,1,,,,,,,-1,-1,1400,0,ITI,poldrack-single-stim,295,369647,0.0-6.1-90.1,go_nogo_deval,412,,<div></div>,32,1400,test,,,,,,,,,,,,-1,-1,500,0,fixation,poldrack-single-stim,296,370149,0.0-6.1-91.1,go_nogo_deval,412,,<div class = centerbox><div class = fixation>+</div></div>,none,500,test,,,,,,,,,,,,-1,-1,850,0,stim,poldrack-single-stim,297,371001,0.0-6.1-92.1,go_nogo_deval,412,,<img class = center src='/static/experiments/go_nogo_deval/images/red_circle.png'></img>,32,850,test,red_circle,nogo1,-1,30,1,,,,,,,-1,-1,1400,0,ITI,poldrack-single-stim,298,372402,0.0-6.1-93.1,go_nogo_deval,412,,<div></div>,32,1400,test,,,,,,,,,,,,-1,-1,500,0,fixation,poldrack-single-stim,299,372904,0.0-6.1-94.1,go_nogo_deval,412,,<div class = centerbox><div class = fixation>+</div></div>,none,500,test,,,,,,,,,,,,469,32,850,0,stim,poldrack-single-stim,300,373756,0.0-6.1-95.1,go_nogo_deval,412,,<img class = center src='/static/experiments/go_nogo_deval/images/purple_pentagon.png'></img>,32,850,test,purple_pentagon,go1,32,31,1,,,,,,,-1,-1,1400,0,ITI,poldrack-single-stim,301,375158,0.0-6.1-96.1,go_nogo_deval,412,,<div></div>,32,1400,test,,,,,,,,,,,,-1,-1,500,0,fixation,poldrack-single-stim,302,375659,0.0-6.1-97.1,go_nogo_deval,412,,<div class = centerbox><div class = fixation>+</div></div>,none,500,test,,,,,,,,,,,,-1,-1,850,0,stim,poldrack-single-stim,303,376511,0.0-6.1-98.1,go_nogo_deval,412,,<img class = center src='/static/experiments/go_nogo_deval/images/blue_triangle.png'></img>,32,850,test,blue_triangle,nogo2,-1,32,1,,,,,,,-1,-1,1400,0,ITI,poldrack-single-stim,304,377912,0.0-6.1-99.1,go_nogo_deval,412,,<div></div>,32,1400,test,,,,,,,,,,,,-1,-1,500,0,fixation,poldrack-single-stim,305,378414,0.0-6.1-100.1,go_nogo_deval,412,,<div class = centerbox><div class = fixation>+</div></div>,none,500,test,,,,,,,,,,,,470,32,850,0,stim,poldrack-single-stim,306,379266,0.0-6.1-101.1,go_nogo_deval,412,,<img class = center src='/static/experiments/go_nogo_deval/images/green_rhombus.png'></img>,32,850,test,green_rhombus,go2,32,33,1,,,,,,,-1,-1,1400,0,ITI,poldrack-single-stim,307,380667,0.0-6.1-102.1,go_nogo_deval,412,,<div></div>,32,1400,test,,,,,,,,,,,,-1,-1,500,0,fixation,poldrack-single-stim,308,381169,0.0-6.1-103.1,go_nogo_deval,412,,<div class = centerbox><div class = fixation>+</div></div>,none,500,test,,,,,,,,,,,,495,32,850,0,stim,poldrack-single-stim,309,382019,0.0-6.1-104.1,go_nogo_deval,412,,<img class = center src='/static/experiments/go_nogo_deval/images/green_rhombus.png'></img>,32,850,test,green_rhombus,go2,32,34,1,,,,,,,-1,-1,1400,0,ITI,poldrack-single-stim,310,383421,0.0-6.1-105.1,go_nogo_deval,412,,<div></div>,32,1400,test,,,,,,,,,,,,-1,-1,500,0,fixation,poldrack-single-stim,311,383923,0.0-6.1-106.1,go_nogo_deval,412,,<div class = centerbox><div class = fixation>+</div></div>,none,500,test,,,,,,,,,,,,464,32,850,0,stim,poldrack-single-stim,312,384775,0.0-6.1-107.1,go_nogo_deval,412,,<img class = center src='/static/experiments/go_nogo_deval/images/purple_pentagon.png'></img>,32,850,test,purple_pentagon,go1,32,35,1,,,,,,,-1,-1,1400,0,ITI,poldrack-single-stim,313,386176,0.0-6.1-108.1,go_nogo_deval,412,,<div></div>,32,1400,test,,,,,,,,,,,,-1,-1,500,0,fixation,poldrack-single-stim,314,386678,0.0-6.1-109.1,go_nogo_deval,412,,<div class = centerbox><div class = fixation>+</div></div>,none,500,test,,,,,,,,,,,,442,32,850,0,stim,poldrack-single-stim,315,387528,0.0-6.1-110.1,go_nogo_deval,412,,<img class = center src='/static/experiments/go_nogo_deval/images/purple_pentagon.png'></img>,32,850,test,purple_pentagon,go1,32,36,1,,,,,,,-1,-1,1400,0,ITI,poldrack-single-stim,316,388930,0.0-6.1-111.1,go_nogo_deval,412,,<div></div>,32,1400,test,,,,,,,,,,,,-1,-1,500,0,fixation,poldrack-single-stim,317,389432,0.0-6.1-112.1,go_nogo_deval,412,,<div class = centerbox><div class = fixation>+</div></div>,none,500,test,,,,,,,,,,,,-1,-1,850,0,stim,poldrack-single-stim,318,390284,0.0-6.1-113.1,go_nogo_deval,412,,<img class = center src='/static/experiments/go_nogo_deval/images/red_circle.png'></img>,32,850,test,red_circle,nogo1,-1,37,1,,,,,,,-1,-1,1400,0,ITI,poldrack-single-stim,319,391686,0.0-6.1-114.1,go_nogo_deval,412,,<div></div>,32,1400,test,,,,,,,,,,,,-1,-1,500,0,fixation,poldrack-single-stim,320,392187,0.0-6.1-115.1,go_nogo_deval,412,,<div class = centerbox><div class = fixation>+</div></div>,none,500,test,,,,,,,,,,,,-1,-1,850,0,stim,poldrack-single-stim,321,393039,0.0-6.1-116.1,go_nogo_deval,412,,<img class = center src='/static/experiments/go_nogo_deval/images/red_circle.png'></img>,32,850,test,red_circle,nogo1,-1,38,1,,,,,,,-1,-1,1400,0,ITI,poldrack-single-stim,322,394441,0.0-6.1-117.1,go_nogo_deval,412,,<div></div>,32,1400,test,,,,,,,,,,,,-1,-1,500,0,fixation,poldrack-single-stim,323,394942,0.0-6.1-118.1,go_nogo_deval,412,,<div class = centerbox><div class = fixation>+</div></div>,none,500,test,,,,,,,,,,,,401,32,850,0,stim,poldrack-single-stim,324,395794,0.0-6.1-119.1,go_nogo_deval,412,,<img class = center src='/static/experiments/go_nogo_deval/images/purple_pentagon.png'></img>,32,850,test,purple_pentagon,go1,32,39,1,,,,,,,-1,-1,1400,0,ITI,poldrack-single-stim,325,397196,0.0-6.1-120.1,go_nogo_deval,412,,<div></div>,32,1400,test,,,,,,,,,,,,-1,-1,500,0,fixation,poldrack-single-stim,326,397697,0.0-6.1-121.1,go_nogo_deval,412,,<div class = centerbox><div class = fixation>+</div></div>,none,500,test,,,,,,,,,,,,-1,-1,850,0,stim,poldrack-single-stim,327,398550,0.0-6.1-122.1,go_nogo_deval,412,,<img class = center src='/static/experiments/go_nogo_deval/images/red_circle.png'></img>,32,850,test,red_circle,nogo1,-1,40,1,,,,,,,-1,-1,1400,0,ITI,poldrack-single-stim,328,399952,0.0-6.1-123.1,go_nogo_deval,412,,<div></div>,32,1400,test,,,,,,,,,,,,-1,-1,500,0,fixation,poldrack-single-stim,329,400453,0.0-6.1-124.1,go_nogo_deval,412,,<div class = centerbox><div class = fixation>+</div></div>,none,500,test,,,,,,,,,,,,-1,-1,850,0,stim,poldrack-single-stim,330,401304,0.0-6.1-125.1,go_nogo_deval,412,,<img class = center src='/static/experiments/go_nogo_deval/images/red_circle.png'></img>,32,850,test,red_circle,nogo1,-1,41,1,,,,,,,-1,-1,1400,0,ITI,poldrack-single-stim,331,402706,0.0-6.1-126.1,go_nogo_deval,412,,<div></div>,32,1400,test,,,,,,,,,,,,-1,-1,500,0,fixation,poldrack-single-stim,332,403208,0.0-6.1-127.1,go_nogo_deval,412,,<div class = centerbox><div class = fixation>+</div></div>,none,500,test,,,,,,,,,,,,394,32,850,0,stim,poldrack-single-stim,333,404060,0.0-6.1-128.1,go_nogo_deval,412,,<img class = center src='/static/experiments/go_nogo_deval/images/blue_triangle.png'></img>,32,850,test,blue_triangle,nogo2,-1,42,1,,,,,,,-1,-1,1400,0,ITI,poldrack-single-stim,334,405462,0.0-6.1-129.1,go_nogo_deval,412,,<div></div>,32,1400,test,,,,,,,,,,,,-1,-1,500,0,fixation,poldrack-single-stim,335,405963,0.0-6.1-130.1,go_nogo_deval,412,,<div class = centerbox><div class = fixation>+</div></div>,none,500,test,,,,,,,,,,,,-1,-1,850,0,stim,poldrack-single-stim,336,406814,0.0-6.1-131.1,go_nogo_deval,412,,<img class = center src='/static/experiments/go_nogo_deval/images/red_circle.png'></img>,32,850,test,red_circle,nogo1,-1,43,1,,,,,,,-1,-1,1400,0,ITI,poldrack-single-stim,337,408216,0.0-6.1-132.1,go_nogo_deval,412,,<div></div>,32,1400,test,,,,,,,,,,,,-1,-1,500,0,fixation,poldrack-single-stim,338,408717,0.0-6.1-133.1,go_nogo_deval,412,,<div class = centerbox><div class = fixation>+</div></div>,none,500,test,,,,,,,,,,,,476,32,850,0,stim,poldrack-single-stim,339,409569,0.0-6.1-134.1,go_nogo_deval,412,,<img class = center src='/static/experiments/go_nogo_deval/images/green_rhombus.png'></img>,32,850,test,green_rhombus,go2,32,44,1,,,,,,,-1,-1,1400,0,ITI,poldrack-single-stim,340,410970,0.0-6.1-135.1,go_nogo_deval,412,,<div></div>,32,1400,test,,,,,,,,,,,,-1,-1,500,0,fixation,poldrack-single-stim,341,411472,0.0-6.1-136.1,go_nogo_deval,412,,<div class = centerbox><div class = fixation>+</div></div>,none,500,test,,,,,,,,,,,,510,32,850,0,stim,poldrack-single-stim,342,412324,0.0-6.1-137.1,go_nogo_deval,412,,<img class = center src='/static/experiments/go_nogo_deval/images/green_rhombus.png'></img>,32,850,test,green_rhombus,go2,32,45,1,,,,,,,-1,-1,1400,0,ITI,poldrack-single-stim,343,413725,0.0-6.1-138.1,go_nogo_deval,412,,<div></div>,32,1400,test,,,,,,,,,,,,-1,-1,500,0,fixation,poldrack-single-stim,344,414227,0.0-6.1-139.1,go_nogo_deval,412,,<div class = centerbox><div class = fixation>+</div></div>,none,500,test,,,,,,,,,,,,-1,-1,850,0,stim,poldrack-single-stim,345,415078,0.0-6.1-140.1,go_nogo_deval,412,,<img class = center src='/static/experiments/go_nogo_deval/images/blue_triangle.png'></img>,32,850,test,blue_triangle,nogo2,-1,46,1,,,,,,,-1,-1,1400,0,ITI,poldrack-single-stim,346,416479,0.0-6.1-141.1,go_nogo_deval,412,,<div></div>,32,1400,test,,,,,,,,,,,,-1,-1,500,0,fixation,poldrack-single-stim,347,416982,0.0-6.1-142.1,go_nogo_deval,412,,<div class = centerbox><div class = fixation>+</div></div>,none,500,test,,,,,,,,,,,,412,32,850,0,stim,poldrack-single-stim,348,417834,0.0-6.1-143.1,go_nogo_deval,412,,<img class = center src='/static/experiments/go_nogo_deval/images/green_rhombus.png'></img>,32,850,test,green_rhombus,go2,32,47,1,,,,,,,-1,-1,1400,0,ITI,poldrack-single-stim,349,419235,0.0-6.1-144.1,go_nogo_deval,412,,<div></div>,32,1400,test,,,,,,,,,,,,4007,13,4007,0,practice-no-stop-feedback,poldrack-single-stim,350,423245,0.0-6.2-0.2,go_nogo_deval,412,,"<div class = centerbox><p class = block-text><br>Please take this time to read your feedback and to take a short break! Press enter to continue</p><p class = block-text><strong>Average reaction time:  447 ms. Accuracy: 96%</strong></p><p class = block-text>We have detected a number of trials that <strong>required no response</strong>, where a response was made.  Please <strong>ensure that you do not respond </strong>to shapes that require no response</p></div>",13,4007,,,,,,,,,,,,,-1,-1,500,0,fixation,poldrack-single-stim,351,423747,0.0-6.2-1.2,go_nogo_deval,412,,<div class = centerbox><div class = fixation>+</div></div>,none,500,test,,,,,,,,,,,,-1,-1,850,0,stim,poldrack-single-stim,352,424599,0.0-6.2-2.2,go_nogo_deval,412,,<img class = center src='/static/experiments/go_nogo_deval/images/blue_triangle.png'></img>,32,850,test,blue_triangle,nogo2,-1,0,2,,,,,,,-1,-1,1400,0,ITI,poldrack-single-stim,353,426000,0.0-6.2-3.2,go_nogo_deval,412,,<div></div>,32,1400,test,,,,,,,,,,,,-1,-1,500,0,fixation,poldrack-single-stim,354,426501,0.0-6.2-4.2,go_nogo_deval,412,,<div class = centerbox><div class = fixation>+</div></div>,none,500,test,,,,,,,,,,,,580,32,850,0,stim,poldrack-single-stim,355,427353,0.0-6.2-5.2,go_nogo_deval,412,,<img class = center src='/static/experiments/go_nogo_deval/images/purple_pentagon.png'></img>,32,850,test,purple_pentagon,go1,32,1,2,,,,,,,-1,-1,1400,0,ITI,poldrack-single-stim,356,428755,0.0-6.2-6.2,go_nogo_deval,412,,<div></div>,32,1400,test,,,,,,,,,,,,-1,-1,500,0,fixation,poldrack-single-stim,357,429257,0.0-6.2-7.2,go_nogo_deval,412,,<div class = centerbox><div class = fixation>+</div></div>,none,500,test,,,,,,,,,,,,422,32,850,0,stim,poldrack-single-stim,358,430107,0.0-6.2-8.2,go_nogo_deval,412,,<img class = center src='/static/experiments/go_nogo_deval/images/purple_pentagon.png'></img>,32,850,test,purple_pentagon,go1,32,2,2,,,,,,,-1,-1,1400,0,ITI,poldrack-single-stim,359,431509,0.0-6.2-9.2,go_nogo_deval,412,,<div></div>,32,1400,test,,,,,,,,,,,,-1,-1,500,0,fixation,poldrack-single-stim,360,432011,0.0-6.2-10.2,go_nogo_deval,412,,<div class = centerbox><div class = fixation>+</div></div>,none,500,test,,,,,,,,,,,,492,32,850,0,stim,poldrack-single-stim,361,432863,0.0-6.2-11.2,go_nogo_deval,412,,<img class = center src='/static/experiments/go_nogo_deval/images/green_rhombus.png'></img>,32,850,test,green_rhombus,go2,32,3,2,,,,,,,-1,-1,1400,0,ITI,poldrack-single-stim,362,434265,0.0-6.2-12.2,go_nogo_deval,412,,<div></div>,32,1400,test,,,,,,,,,,,,-1,-1,500,0,fixation,poldrack-single-stim,363,434767,0.0-6.2-13.2,go_nogo_deval,412,,<div class = centerbox><div class = fixation>+</div></div>,none,500,test,,,,,,,,,,,,380,32,850,0,stim,poldrack-single-stim,364,435618,0.0-6.2-14.2,go_nogo_deval,412,,<img class = center src='/static/experiments/go_nogo_deval/images/purple_pentagon.png'></img>,32,850,test,purple_pentagon,go1,32,4,2,,,,,,,-1,-1,1400,0,ITI,poldrack-single-stim,365,437019,0.0-6.2-15.2,go_nogo_deval,412,,<div></div>,32,1400,test,,,,,,,,,,,,-1,-1,500,0,fixation,poldrack-single-stim,366,437521,0.0-6.2-16.2,go_nogo_deval,412,,<div class = centerbox><div class = fixation>+</div></div>,none,500,test,,,,,,,,,,,,-1,-1,850,0,stim,poldrack-single-stim,367,438372,0.0-6.2-17.2,go_nogo_deval,412,,<img class = center src='/static/experiments/go_nogo_deval/images/blue_triangle.png'></img>,32,850,test,blue_triangle,nogo2,-1,5,2,,,,,,,-1,-1,1400,0,ITI,poldrack-single-stim,368,439773,0.0-6.2-18.2,go_nogo_deval,412,,<div></div>,32,1400,test,,,,,,,,,,,,-1,-1,500,0,fixation,poldrack-single-stim,369,440275,0.0-6.2-19.2,go_nogo_deval,412,,<div class = centerbox><div class = fixation>+</div></div>,none,500,test,,,,,,,,,,,,474,32,850,0,stim,poldrack-single-stim,370,441127,0.0-6.2-20.2,go_nogo_deval,412,,<img class = center src='/static/experiments/go_nogo_deval/images/purple_pentagon.png'></img>,32,850,test,purple_pentagon,go1,32,6,2,,,,,,,-1,-1,1400,0,ITI,poldrack-single-stim,371,442528,0.0-6.2-21.2,go_nogo_deval,412,,<div></div>,32,1400,test,,,,,,,,,,,,-1,-1,500,0,fixation,poldrack-single-stim,372,443029,0.0-6.2-22.2,go_nogo_deval,412,,<div class = centerbox><div class = fixation>+</div></div>,none,500,test,,,,,,,,,,,,533,32,850,0,stim,poldrack-single-stim,373,443881,0.0-6.2-23.2,go_nogo_deval,412,,<img class = center src='/static/experiments/go_nogo_deval/images/green_rhombus.png'></img>,32,850,test,green_rhombus,go2,32,7,2,,,,,,,-1,-1,1400,0,ITI,poldrack-single-stim,374,445282,0.0-6.2-24.2,go_nogo_deval,412,,<div></div>,32,1400,test,,,,,,,,,,,,-1,-1,500,0,fixation,poldrack-single-stim,375,445784,0.0-6.2-25.2,go_nogo_deval,412,,<div class = centerbox><div class = fixation>+</div></div>,none,500,test,,,,,,,,,,,,432,32,850,0,stim,poldrack-single-stim,376,446636,0.0-6.2-26.2,go_nogo_deval,412,,<img class = center src='/static/experiments/go_nogo_deval/images/purple_pentagon.png'></img>,32,850,test,purple_pentagon,go1,32,8,2,,,,,,,-1,-1,1400,0,ITI,poldrack-single-stim,377,448038,0.0-6.2-27.2,go_nogo_deval,412,,<div></div>,32,1400,test,,,,,,,,,,,,-1,-1,500,0,fixation,poldrack-single-stim,378,448540,0.0-6.2-28.2,go_nogo_deval,412,,<div class = centerbox><div class = fixation>+</div></div>,none,500,test,,,,,,,,,,,,-1,-1,850,0,stim,poldrack-single-stim,379,449391,0.0-6.2-29.2,go_nogo_deval,412,,<img class = center src='/static/experiments/go_nogo_deval/images/red_circle.png'></img>,32,850,test,red_circle,nogo1,-1,9,2,,,,,,,-1,-1,1400,0,ITI,poldrack-single-stim,380,450793,0.0-6.2-30.2,go_nogo_deval,412,,<div></div>,32,1400,test,,,,,,,,,,,,-1,-1,500,0,fixation,poldrack-single-stim,381,451295,0.0-6.2-31.2,go_nogo_deval,412,,<div class = centerbox><div class = fixation>+</div></div>,none,500,test,,,,,,,,,,,,468,32,850,0,stim,poldrack-single-stim,382,452146,0.0-6.2-32.2,go_nogo_deval,412,,<img class = center src='/static/experiments/go_nogo_deval/images/purple_pentagon.png'></img>,32,850,test,purple_pentagon,go1,32,10,2,,,,,,,-1,-1,1400,0,ITI,poldrack-single-stim,383,453548,0.0-6.2-33.2,go_nogo_deval,412,,<div></div>,32,1400,test,,,,,,,,,,,,-1,-1,500,0,fixation,poldrack-single-stim,384,454050,0.0-6.2-34.2,go_nogo_deval,412,,<div class = centerbox><div class = fixation>+</div></div>,none,500,test,,,,,,,,,,,,470,32,850,0,stim,poldrack-single-stim,385,454902,0.0-6.2-35.2,go_nogo_deval,412,,<img class = center src='/static/experiments/go_nogo_deval/images/purple_pentagon.png'></img>,32,850,test,purple_pentagon,go1,32,11,2,,,,,,,-1,-1,1400,0,ITI,poldrack-single-stim,386,456303,0.0-6.2-36.2,go_nogo_deval,412,,<div></div>,32,1400,test,,,,,,,,,,,,-1,-1,500,0,fixation,poldrack-single-stim,387,456804,0.0-6.2-37.2,go_nogo_deval,412,,<div class = centerbox><div class = fixation>+</div></div>,none,500,test,,,,,,,,,,,,505,32,850,0,stim,poldrack-single-stim,388,457656,0.0-6.2-38.2,go_nogo_deval,412,,<img class = center src='/static/experiments/go_nogo_deval/images/purple_pentagon.png'></img>,32,850,test,purple_pentagon,go1,32,12,2,,,,,,,-1,-1,1400,0,ITI,poldrack-single-stim,389,459058,0.0-6.2-39.2,go_nogo_deval,412,,<div></div>,32,1400,test,,,,,,,,,,,,-1,-1,500,0,fixation,poldrack-single-stim,390,459559,0.0-6.2-40.2,go_nogo_deval,412,,<div class = centerbox><div class = fixation>+</div></div>,none,500,test,,,,,,,,,,,,586,32,850,0,stim,poldrack-single-stim,391,460411,0.0-6.2-41.2,go_nogo_deval,412,,<img class = center src='/static/experiments/go_nogo_deval/images/green_rhombus.png'></img>,32,850,test,green_rhombus,go2,32,13,2,,,,,,,-1,-1,1400,0,ITI,poldrack-single-stim,392,461813,0.0-6.2-42.2,go_nogo_deval,412,,<div></div>,32,1400,test,,,,,,,,,,,,-1,-1,500,0,fixation,poldrack-single-stim,393,462315,0.0-6.2-43.2,go_nogo_deval,412,,<div class = centerbox><div class = fixation>+</div></div>,none,500,test,,,,,,,,,,,,416,32,850,0,stim,poldrack-single-stim,394,463168,0.0-6.2-44.2,go_nogo_deval,412,,<img class = center src='/static/experiments/go_nogo_deval/images/purple_pentagon.png'></img>,32,850,test,purple_pentagon,go1,32,14,2,,,,,,,-1,-1,1400,0,ITI,poldrack-single-stim,395,464570,0.0-6.2-45.2,go_nogo_deval,412,,<div></div>,32,1400,test,,,,,,,,,,,,-1,-1,500,0,fixation,poldrack-single-stim,396,465072,0.0-6.2-46.2,go_nogo_deval,412,,<div class = centerbox><div class = fixation>+</div></div>,none,500,test,,,,,,,,,,,,-1,-1,850,0,stim,poldrack-single-stim,397,465924,0.0-6.2-47.2,go_nogo_deval,412,,<img class = center src='/static/experiments/go_nogo_deval/images/blue_triangle.png'></img>,32,850,test,blue_triangle,nogo2,-1,15,2,,,,,,,-1,-1,1400,0,ITI,poldrack-single-stim,398,467326,0.0-6.2-48.2,go_nogo_deval,412,,<div></div>,32,1400,test,,,,,,,,,,,,-1,-1,500,0,fixation,poldrack-single-stim,399,467827,0.0-6.2-49.2,go_nogo_deval,412,,<div class = centerbox><div class = fixation>+</div></div>,none,500,test,,,,,,,,,,,,428,32,850,0,stim,poldrack-single-stim,400,468678,0.0-6.2-50.2,go_nogo_deval,412,,<img class = center src='/static/experiments/go_nogo_deval/images/purple_pentagon.png'></img>,32,850,test,purple_pentagon,go1,32,16,2,,,,,,,-1,-1,1400,0,ITI,poldrack-single-stim,401,470080,0.0-6.2-51.2,go_nogo_deval,412,,<div></div>,32,1400,test,,,,,,,,,,,,-1,-1,500,0,fixation,poldrack-single-stim,402,470582,0.0-6.2-52.2,go_nogo_deval,412,,<div class = centerbox><div class = fixation>+</div></div>,none,500,test,,,,,,,,,,,,-1,-1,850,0,stim,poldrack-single-stim,403,471434,0.0-6.2-53.2,go_nogo_deval,412,,<img class = center src='/static/experiments/go_nogo_deval/images/red_circle.png'></img>,32,850,test,red_circle,nogo1,-1,17,2,,,,,,,-1,-1,1400,0,ITI,poldrack-single-stim,404,472836,0.0-6.2-54.2,go_nogo_deval,412,,<div></div>,32,1400,test,,,,,,,,,,,,-1,-1,500,0,fixation,poldrack-single-stim,405,473338,0.0-6.2-55.2,go_nogo_deval,412,,<div class = centerbox><div class = fixation>+</div></div>,none,500,test,,,,,,,,,,,,-1,-1,850,0,stim,poldrack-single-stim,406,474190,0.0-6.2-56.2,go_nogo_deval,412,,<img class = center src='/static/experiments/go_nogo_deval/images/red_circle.png'></img>,32,850,test,red_circle,nogo1,-1,18,2,,,,,,,-1,-1,1400,0,ITI,poldrack-single-stim,407,475592,0.0-6.2-57.2,go_nogo_deval,412,,<div></div>,32,1400,test,,,,,,,,,,,,-1,-1,500,0,fixation,poldrack-single-stim,408,476093,0.0-6.2-58.2,go_nogo_deval,412,,<div class = centerbox><div class = fixation>+</div></div>,none,500,test,,,,,,,,,,,,397,32,850,0,stim,poldrack-single-stim,409,476944,0.0-6.2-59.2,go_nogo_deval,412,,<img class = center src='/static/experiments/go_nogo_deval/images/green_rhombus.png'></img>,32,850,test,green_rhombus,go2,32,19,2,,,,,,,-1,-1,1400,0,ITI,poldrack-single-stim,410,478346,0.0-6.2-60.2,go_nogo_deval,412,,<div></div>,32,1400,test,,,,,,,,,,,,-1,-1,500,0,fixation,poldrack-single-stim,411,478847,0.0-6.2-61.2,go_nogo_deval,412,,<div class = centerbox><div class = fixation>+</div></div>,none,500,test,,,,,,,,,,,,491,32,850,0,stim,poldrack-single-stim,412,479699,0.0-6.2-62.2,go_nogo_deval,412,,<img class = center src='/static/experiments/go_nogo_deval/images/green_rhombus.png'></img>,32,850,test,green_rhombus,go2,32,20,2,,,,,,,-1,-1,1400,0,ITI,poldrack-single-stim,413,481100,0.0-6.2-63.2,go_nogo_deval,412,,<div></div>,32,1400,test,,,,,,,,,,,,-1,-1,500,0,fixation,poldrack-single-stim,414,481601,0.0-6.2-64.2,go_nogo_deval,412,,<div class = centerbox><div class = fixation>+</div></div>,none,500,test,,,,,,,,,,,,-1,-1,850,0,stim,poldrack-single-stim,415,482453,0.0-6.2-65.2,go_nogo_deval,412,,<img class = center src='/static/experiments/go_nogo_deval/images/red_circle.png'></img>,32,850,test,red_circle,nogo1,-1,21,2,,,,,,,-1,-1,1400,0,ITI,poldrack-single-stim,416,483854,0.0-6.2-66.2,go_nogo_deval,412,,<div></div>,32,1400,test,,,,,,,,,,,,-1,-1,500,0,fixation,poldrack-single-stim,417,484355,0.0-6.2-67.2,go_nogo_deval,412,,<div class = centerbox><div class = fixation>+</div></div>,none,500,test,,,,,,,,,,,,494,32,850,0,stim,poldrack-single-stim,418,485207,0.0-6.2-68.2,go_nogo_deval,412,,<img class = center src='/static/experiments/go_nogo_deval/images/green_rhombus.png'></img>,32,850,test,green_rhombus,go2,32,22,2,,,,,,,-1,-1,1400,0,ITI,poldrack-single-stim,419,486609,0.0-6.2-69.2,go_nogo_deval,412,,<div></div>,32,1400,test,,,,,,,,,,,,-1,-1,500,0,fixation,poldrack-single-stim,420,487111,0.0-6.2-70.2,go_nogo_deval,412,,<div class = centerbox><div class = fixation>+</div></div>,none,500,test,,,,,,,,,,,,-1,-1,850,0,stim,poldrack-single-stim,421,487962,0.0-6.2-71.2,go_nogo_deval,412,,<img class = center src='/static/experiments/go_nogo_deval/images/red_circle.png'></img>,32,850,test,red_circle,nogo1,-1,23,2,,,,,,,-1,-1,1400,0,ITI,poldrack-single-stim,422,489364,0.0-6.2-72.2,go_nogo_deval,412,,<div></div>,32,1400,test,,,,,,,,,,,,-1,-1,500,0,fixation,poldrack-single-stim,423,489866,0.0-6.2-73.2,go_nogo_deval,412,,<div class = centerbox><div class = fixation>+</div></div>,none,500,test,,,,,,,,,,,,-1,-1,850,0,stim,poldrack-single-stim,424,490717,0.0-6.2-74.2,go_nogo_deval,412,,<img class = center src='/static/experiments/go_nogo_deval/images/red_circle.png'></img>,32,850,test,red_circle,nogo1,-1,24,2,,,,,,,-1,-1,1400,0,ITI,poldrack-single-stim,425,492119,0.0-6.2-75.2,go_nogo_deval,412,,<div></div>,32,1400,test,,,,,,,,,,,,-1,-1,500,0,fixation,poldrack-single-stim,426,492621,0.0-6.2-76.2,go_nogo_deval,412,,<div class = centerbox><div class = fixation>+</div></div>,none,500,test,,,,,,,,,,,,465,32,850,0,stim,poldrack-single-stim,427,493473,0.0-6.2-77.2,go_nogo_deval,412,,<img class = center src='/static/experiments/go_nogo_deval/images/green_rhombus.png'></img>,32,850,test,green_rhombus,go2,32,25,2,,,,,,,-1,-1,1400,0,ITI,poldrack-single-stim,428,494875,0.0-6.2-78.2,go_nogo_deval,412,,<div></div>,32,1400,test,,,,,,,,,,,,-1,-1,500,0,fixation,poldrack-single-stim,429,495377,0.0-6.2-79.2,go_nogo_deval,412,,<div class = centerbox><div class = fixation>+</div></div>,none,500,test,,,,,,,,,,,,611,32,850,0,stim,poldrack-single-stim,430,496228,0.0-6.2-80.2,go_nogo_deval,412,,<img class = center src='/static/experiments/go_nogo_deval/images/green_rhombus.png'></img>,32,850,test,green_rhombus,go2,32,26,2,,,,,,,-1,-1,1400,0,ITI,poldrack-single-stim,431,497629,0.0-6.2-81.2,go_nogo_deval,412,,<div></div>,32,1400,test,,,,,,,,,,,,-1,-1,500,0,fixation,poldrack-single-stim,432,498131,0.0-6.2-82.2,go_nogo_deval,412,,<div class = centerbox><div class = fixation>+</div></div>,none,500,test,,,,,,,,,,,,499,32,850,0,stim,poldrack-single-stim,433,498983,0.0-6.2-83.2,go_nogo_deval,412,,<img class = center src='/static/experiments/go_nogo_deval/images/green_rhombus.png'></img>,32,850,test,green_rhombus,go2,32,27,2,,,,,,,-1,-1,1400,0,ITI,poldrack-single-stim,434,500384,0.0-6.2-84.2,go_nogo_deval,412,,<div></div>,32,1400,test,,,,,,,,,,,,-1,-1,500,0,fixation,poldrack-single-stim,435,500886,0.0-6.2-85.2,go_nogo_deval,412,,<div class = centerbox><div class = fixation>+</div></div>,none,500,test,,,,,,,,,,,,524,32,850,0,stim,poldrack-single-stim,436,501736,0.0-6.2-86.2,go_nogo_deval,412,,<img class = center src='/static/experiments/go_nogo_deval/images/purple_pentagon.png'></img>,32,850,test,purple_pentagon,go1,32,28,2,,,,,,,-1,-1,1400,0,ITI,poldrack-single-stim,437,503138,0.0-6.2-87.2,go_nogo_deval,412,,<div></div>,32,1400,test,,,,,,,,,,,,-1,-1,500,0,fixation,poldrack-single-stim,438,503640,0.0-6.2-88.2,go_nogo_deval,412,,<div class = centerbox><div class = fixation>+</div></div>,none,500,test,,,,,,,,,,,,482,32,850,0,stim,poldrack-single-stim,439,504492,0.0-6.2-89.2,go_nogo_deval,412,,<img class = center src='/static/experiments/go_nogo_deval/images/purple_pentagon.png'></img>,32,850,test,purple_pentagon,go1,32,29,2,,,,,,,-1,-1,1400,0,ITI,poldrack-single-stim,440,505892,0.0-6.2-90.2,go_nogo_deval,412,,<div></div>,32,1400,test,,,,,,,,,,,,-1,-1,500,0,fixation,poldrack-single-stim,441,506394,0.0-6.2-91.2,go_nogo_deval,412,,<div class = centerbox><div class = fixation>+</div></div>,none,500,test,,,,,,,,,,,,494,32,850,0,stim,poldrack-single-stim,442,507247,0.0-6.2-92.2,go_nogo_deval,412,,<img class = center src='/static/experiments/go_nogo_deval/images/green_rhombus.png'></img>,32,850,test,green_rhombus,go2,32,30,2,,,,,,,-1,-1,1400,0,ITI,poldrack-single-stim,443,508648,0.0-6.2-93.2,go_nogo_deval,412,,<div></div>,32,1400,test,,,,,,,,,,,,-1,-1,500,0,fixation,poldrack-single-stim,444,509150,0.0-6.2-94.2,go_nogo_deval,412,,<div class = centerbox><div class = fixation>+</div></div>,none,500,test,,,,,,,,,,,,505,32,850,0,stim,poldrack-single-stim,445,510002,0.0-6.2-95.2,go_nogo_deval,412,,<img class = center src='/static/experiments/go_nogo_deval/images/green_rhombus.png'></img>,32,850,test,green_rhombus,go2,32,31,2,,,,,,,-1,-1,1400,0,ITI,poldrack-single-stim,446,511404,0.0-6.2-96.2,go_nogo_deval,412,,<div></div>,32,1400,test,,,,,,,,,,,,-1,-1,500,0,fixation,poldrack-single-stim,447,511905,0.0-6.2-97.2,go_nogo_deval,412,,<div class = centerbox><div class = fixation>+</div></div>,none,500,test,,,,,,,,,,,,-1,-1,850,0,stim,poldrack-single-stim,448,512757,0.0-6.2-98.2,go_nogo_deval,412,,<img class = center src='/static/experiments/go_nogo_deval/images/blue_triangle.png'></img>,32,850,test,blue_triangle,nogo2,-1,32,2,,,,,,,-1,-1,1400,0,ITI,poldrack-single-stim,449,514158,0.0-6.2-99.2,go_nogo_deval,412,,<div></div>,32,1400,test,,,,,,,,,,,,-1,-1,500,0,fixation,poldrack-single-stim,450,514660,0.0-6.2-100.2,go_nogo_deval,412,,<div class = centerbox><div class = fixation>+</div></div>,none,500,test,,,,,,,,,,,,-1,-1,850,0,stim,poldrack-single-stim,451,515511,0.0-6.2-101.2,go_nogo_deval,412,,<img class = center src='/static/experiments/go_nogo_deval/images/red_circle.png'></img>,32,850,test,red_circle,nogo1,-1,33,2,,,,,,,-1,-1,1400,0,ITI,poldrack-single-stim,452,516913,0.0-6.2-102.2,go_nogo_deval,412,,<div></div>,32,1400,test,,,,,,,,,,,,-1,-1,500,0,fixation,poldrack-single-stim,453,517415,0.0-6.2-103.2,go_nogo_deval,412,,<div class = centerbox><div class = fixation>+</div></div>,none,500,test,,,,,,,,,,,,645,32,850,0,stim,poldrack-single-stim,454,518266,0.0-6.2-104.2,go_nogo_deval,412,,<img class = center src='/static/experiments/go_nogo_deval/images/purple_pentagon.png'></img>,32,850,test,purple_pentagon,go1,32,34,2,,,,,,,-1,-1,1400,0,ITI,poldrack-single-stim,455,519667,0.0-6.2-105.2,go_nogo_deval,412,,<div></div>,32,1400,test,,,,,,,,,,,,-1,-1,500,0,fixation,poldrack-single-stim,456,520169,0.0-6.2-106.2,go_nogo_deval,412,,<div class = centerbox><div class = fixation>+</div></div>,none,500,test,,,,,,,,,,,,580,32,850,0,stim,poldrack-single-stim,457,521021,0.0-6.2-107.2,go_nogo_deval,412,,<img class = center src='/static/experiments/go_nogo_deval/images/green_rhombus.png'></img>,32,850,test,green_rhombus,go2,32,35,2,,,,,,,-1,-1,1400,0,ITI,poldrack-single-stim,458,522422,0.0-6.2-108.2,go_nogo_deval,412,,<div></div>,32,1400,test,,,,,,,,,,,,-1,-1,500,0,fixation,poldrack-single-stim,459,522923,0.0-6.2-109.2,go_nogo_deval,412,,<div class = centerbox><div class = fixation>+</div></div>,none,500,test,,,,,,,,,,,,525,32,850,0,stim,poldrack-single-stim,460,523775,0.0-6.2-110.2,go_nogo_deval,412,,<img class = center src='/static/experiments/go_nogo_deval/images/purple_pentagon.png'></img>,32,850,test,purple_pentagon,go1,32,36,2,,,,,,,-1,-1,1400,0,ITI,poldrack-single-stim,461,525176,0.0-6.2-111.2,go_nogo_deval,412,,<div></div>,32,1400,test,,,,,,,,,,,,-1,-1,500,0,fixation,poldrack-single-stim,462,525678,0.0-6.2-112.2,go_nogo_deval,412,,<div class = centerbox><div class = fixation>+</div></div>,none,500,test,,,,,,,,,,,,696,32,850,0,stim,poldrack-single-stim,463,526529,0.0-6.2-113.2,go_nogo_deval,412,,<img class = center src='/static/experiments/go_nogo_deval/images/green_rhombus.png'></img>,32,850,test,green_rhombus,go2,32,37,2,,,,,,,-1,-1,1400,0,ITI,poldrack-single-stim,464,527931,0.0-6.2-114.2,go_nogo_deval,412,,<div></div>,32,1400,test,,,,,,,,,,,,-1,-1,500,0,fixation,poldrack-single-stim,465,528431,0.0-6.2-115.2,go_nogo_deval,412,,<div class = centerbox><div class = fixation>+</div></div>,none,500,test,,,,,,,,,,,,485,32,850,0,stim,poldrack-single-stim,466,529283,0.0-6.2-116.2,go_nogo_deval,412,,<img class = center src='/static/experiments/go_nogo_deval/images/green_rhombus.png'></img>,32,850,test,green_rhombus,go2,32,38,2,,,,,,,-1,-1,1400,0,ITI,poldrack-single-stim,467,530684,0.0-6.2-117.2,go_nogo_deval,412,,<div></div>,32,1400,test,,,,,,,,,,,,-1,-1,500,0,fixation,poldrack-single-stim,468,531186,0.0-6.2-118.2,go_nogo_deval,412,,<div class = centerbox><div class = fixation>+</div></div>,none,500,test,,,,,,,,,,,,-1,-1,850,0,stim,poldrack-single-stim,469,532038,0.0-6.2-119.2,go_nogo_deval,412,,<img class = center src='/static/experiments/go_nogo_deval/images/blue_triangle.png'></img>,32,850,test,blue_triangle,nogo2,-1,39,2,,,,,,,-1,-1,1400,0,ITI,poldrack-single-stim,470,533440,0.0-6.2-120.2,go_nogo_deval,412,,<div></div>,32,1400,test,,,,,,,,,,,,-1,-1,500,0,fixation,poldrack-single-stim,471,533941,0.0-6.2-121.2,go_nogo_deval,412,,<div class = centerbox><div class = fixation>+</div></div>,none,500,test,,,,,,,,,,,,511,32,850,0,stim,poldrack-single-stim,472,534793,0.0-6.2-122.2,go_nogo_deval,412,,<img class = center src='/static/experiments/go_nogo_deval/images/purple_pentagon.png'></img>,32,850,test,purple_pentagon,go1,32,40,2,,,,,,,-1,-1,1400,0,ITI,poldrack-single-stim,473,536193,0.0-6.2-123.2,go_nogo_deval,412,,<div></div>,32,1400,test,,,,,,,,,,,,-1,-1,500,0,fixation,poldrack-single-stim,474,536695,0.0-6.2-124.2,go_nogo_deval,412,,<div class = centerbox><div class = fixation>+</div></div>,none,500,test,,,,,,,,,,,,558,32,850,0,stim,poldrack-single-stim,475,537547,0.0-6.2-125.2,go_nogo_deval,412,,<img class = center src='/static/experiments/go_nogo_deval/images/green_rhombus.png'></img>,32,850,test,green_rhombus,go2,32,41,2,,,,,,,-1,-1,1400,0,ITI,poldrack-single-stim,476,538949,0.0-6.2-126.2,go_nogo_deval,412,,<div></div>,32,1400,test,,,,,,,,,,,,-1,-1,500,0,fixation,poldrack-single-stim,477,539450,0.0-6.2-127.2,go_nogo_deval,412,,<div class = centerbox><div class = fixation>+</div></div>,none,500,test,,,,,,,,,,,,-1,-1,850,0,stim,poldrack-single-stim,478,540302,0.0-6.2-128.2,go_nogo_deval,412,,<img class = center src='/static/experiments/go_nogo_deval/images/red_circle.png'></img>,32,850,test,red_circle,nogo1,-1,42,2,,,,,,,-1,-1,1400,0,ITI,poldrack-single-stim,479,541703,0.0-6.2-129.2,go_nogo_deval,412,,<div></div>,32,1400,test,,,,,,,,,,,,-1,-1,500,0,fixation,poldrack-single-stim,480,542204,0.0-6.2-130.2,go_nogo_deval,412,,<div class = centerbox><div class = fixation>+</div></div>,none,500,test,,,,,,,,,,,,-1,-1,850,0,stim,poldrack-single-stim,481,543056,0.0-6.2-131.2,go_nogo_deval,412,,<img class = center src='/static/experiments/go_nogo_deval/images/blue_triangle.png'></img>,32,850,test,blue_triangle,nogo2,-1,43,2,,,,,,,-1,-1,1400,0,ITI,poldrack-single-stim,482,544458,0.0-6.2-132.2,go_nogo_deval,412,,<div></div>,32,1400,test,,,,,,,,,,,,-1,-1,500,0,fixation,poldrack-single-stim,483,544959,0.0-6.2-133.2,go_nogo_deval,412,,<div class = centerbox><div class = fixation>+</div></div>,none,500,test,,,,,,,,,,,,-1,-1,850,0,stim,poldrack-single-stim,484,545810,0.0-6.2-134.2,go_nogo_deval,412,,<img class = center src='/static/experiments/go_nogo_deval/images/blue_triangle.png'></img>,32,850,test,blue_triangle,nogo2,-1,44,2,,,,,,,-1,-1,1400,0,ITI,poldrack-single-stim,485,547211,0.0-6.2-135.2,go_nogo_deval,412,,<div></div>,32,1400,test,,,,,,,,,,,,-1,-1,500,0,fixation,poldrack-single-stim,486,547713,0.0-6.2-136.2,go_nogo_deval,412,,<div class = centerbox><div class = fixation>+</div></div>,none,500,test,,,,,,,,,,,,655,32,850,0,stim,poldrack-single-stim,487,548565,0.0-6.2-137.2,go_nogo_deval,412,,<img class = center src='/static/experiments/go_nogo_deval/images/green_rhombus.png'></img>,32,850,test,green_rhombus,go2,32,45,2,,,,,,,-1,-1,1400,0,ITI,poldrack-single-stim,488,549967,0.0-6.2-138.2,go_nogo_deval,412,,<div></div>,32,1400,test,,,,,,,,,,,,-1,-1,500,0,fixation,poldrack-single-stim,489,550469,0.0-6.2-139.2,go_nogo_deval,412,,<div class = centerbox><div class = fixation>+</div></div>,none,500,test,,,,,,,,,,,,-1,-1,850,0,stim,poldrack-single-stim,490,551320,0.0-6.2-140.2,go_nogo_deval,412,,<img class = center src='/static/experiments/go_nogo_deval/images/blue_triangle.png'></img>,32,850,test,blue_triangle,nogo2,-1,46,2,,,,,,,-1,-1,1400,0,ITI,poldrack-single-stim,491,552722,0.0-6.2-141.2,go_nogo_deval,412,,<div></div>,32,1400,test,,,,,,,,,,,,-1,-1,500,0,fixation,poldrack-single-stim,492,553223,0.0-6.2-142.2,go_nogo_deval,412,,<div class = centerbox><div class = fixation>+</div></div>,none,500,test,,,,,,,,,,,,511,32,850,0,stim,poldrack-single-stim,493,554074,0.0-6.2-143.2,go_nogo_deval,412,,<img class = center src='/static/experiments/go_nogo_deval/images/purple_pentagon.png'></img>,32,850,test,purple_pentagon,go1,32,47,2,,,,,,,-1,-1,1400,0,ITI,poldrack-single-stim,494,555476,0.0-6.2-144.2,go_nogo_deval,412,,<div></div>,32,1400,test,,,,,,,,,,,,7952,13,7952,0,practice-no-stop-feedback,poldrack-single-stim,495,563432,0.0-6.3-0.3,go_nogo_deval,412,,"<div class = centerbox><p class = block-text><br>Please take this time to read your feedback and to take a short break! Press enter to continue</p><p class = block-text><strong>Average reaction time:  510 ms. Accuracy: 100%</strong></p><p class = block-text><strong>You have been responding too slowly, please respond to each shape (circle, triangle, rhombus, pentagon) as quickly and as accurately as possible.</strong></p></div>",13,7952,,,,,,,,,,,,,-1,-1,500,0,fixation,poldrack-single-stim,496,563934,0.0-6.3-1.3,go_nogo_deval,412,,<div class = centerbox><div class = fixation>+</div></div>,none,500,test,,,,,,,,,,,,713,32,850,0,stim,poldrack-single-stim,497,564786,0.0-6.3-2.3,go_nogo_deval,412,,<img class = center src='/static/experiments/go_nogo_deval/images/purple_pentagon.png'></img>,32,850,test,purple_pentagon,go1,32,0,3,,,,,,,-1,-1,1400,0,ITI,poldrack-single-stim,498,566186,0.0-6.3-3.3,go_nogo_deval,412,,<div></div>,32,1400,test,,,,,,,,,,,,-1,-1,500,0,fixation,poldrack-single-stim,499,566688,0.0-6.3-4.3,go_nogo_deval,412,,<div class = centerbox><div class = fixation>+</div></div>,none,500,test,,,,,,,,,,,,434,32,850,0,stim,poldrack-single-stim,500,567539,0.0-6.3-5.3,go_nogo_deval,412,,<img class = center src='/static/experiments/go_nogo_deval/images/purple_pentagon.png'></img>,32,850,test,purple_pentagon,go1,32,1,3,,,,,,,-1,-1,1400,0,ITI,poldrack-single-stim,501,568941,0.0-6.3-6.3,go_nogo_deval,412,,<div></div>,32,1400,test,,,,,,,,,,,,-1,-1,500,0,fixation,poldrack-single-stim,502,569443,0.0-6.3-7.3,go_nogo_deval,412,,<div class = centerbox><div class = fixation>+</div></div>,none,500,test,,,,,,,,,,,,-1,-1,850,0,stim,poldrack-single-stim,503,570294,0.0-6.3-8.3,go_nogo_deval,412,,<img class = center src='/static/experiments/go_nogo_deval/images/red_circle.png'></img>,32,850,test,red_circle,nogo1,-1,2,3,,,,,,,-1,-1,1400,0,ITI,poldrack-single-stim,504,571696,0.0-6.3-9.3,go_nogo_deval,412,,<div></div>,32,1400,test,,,,,,,,,,,,-1,-1,500,0,fixation,poldrack-single-stim,505,572198,0.0-6.3-10.3,go_nogo_deval,412,,<div class = centerbox><div class = fixation>+</div></div>,none,500,test,,,,,,,,,,,,-1,-1,850,0,stim,poldrack-single-stim,506,573050,0.0-6.3-11.3,go_nogo_deval,412,,<img class = center src='/static/experiments/go_nogo_deval/images/red_circle.png'></img>,32,850,test,red_circle,nogo1,-1,3,3,,,,,,,-1,-1,1400,0,ITI,poldrack-single-stim,507,574452,0.0-6.3-12.3,go_nogo_deval,412,,<div></div>,32,1400,test,,,,,,,,,,,,-1,-1,500,0,fixation,poldrack-single-stim,508,574953,0.0-6.3-13.3,go_nogo_deval,412,,<div class = centerbox><div class = fixation>+</div></div>,none,500,test,,,,,,,,,,,,358,32,850,0,stim,poldrack-single-stim,509,575805,0.0-6.3-14.3,go_nogo_deval,412,,<img class = center src='/static/experiments/go_nogo_deval/images/green_rhombus.png'></img>,32,850,test,green_rhombus,go2,32,4,3,,,,,,,-1,-1,1400,0,ITI,poldrack-single-stim,510,577206,0.0-6.3-15.3,go_nogo_deval,412,,<div></div>,32,1400,test,,,,,,,,,,,,-1,-1,500,0,fixation,poldrack-single-stim,511,577708,0.0-6.3-16.3,go_nogo_deval,412,,<div class = centerbox><div class = fixation>+</div></div>,none,500,test,,,,,,,,,,,,371,32,850,0,stim,poldrack-single-stim,512,578560,0.0-6.3-17.3,go_nogo_deval,412,,<img class = center src='/static/experiments/go_nogo_deval/images/green_rhombus.png'></img>,32,850,test,green_rhombus,go2,32,5,3,,,,,,,-1,-1,1400,0,ITI,poldrack-single-stim,513,579961,0.0-6.3-18.3,go_nogo_deval,412,,<div></div>,32,1400,test,,,,,,,,,,,,-1,-1,500,0,fixation,poldrack-single-stim,514,580462,0.0-6.3-19.3,go_nogo_deval,412,,<div class = centerbox><div class = fixation>+</div></div>,none,500,test,,,,,,,,,,,,429,32,850,0,stim,poldrack-single-stim,515,581314,0.0-6.3-20.3,go_nogo_deval,412,,<img class = center src='/static/experiments/go_nogo_deval/images/purple_pentagon.png'></img>,32,850,test,purple_pentagon,go1,32,6,3,,,,,,,-1,-1,1400,0,ITI,poldrack-single-stim,516,582715,0.0-6.3-21.3,go_nogo_deval,412,,<div></div>,32,1400,test,,,,,,,,,,,,-1,-1,500,0,fixation,poldrack-single-stim,517,583217,0.0-6.3-22.3,go_nogo_deval,412,,<div class = centerbox><div class = fixation>+</div></div>,none,500,test,,,,,,,,,,,,419,32,850,0,stim,poldrack-single-stim,518,584069,0.0-6.3-23.3,go_nogo_deval,412,,<img class = center src='/static/experiments/go_nogo_deval/images/purple_pentagon.png'></img>,32,850,test,purple_pentagon,go1,32,7,3,,,,,,,-1,-1,1400,0,ITI,poldrack-single-stim,519,585471,0.0-6.3-24.3,go_nogo_deval,412,,<div></div>,32,1400,test,,,,,,,,,,,,-1,-1,500,0,fixation,poldrack-single-stim,520,585973,0.0-6.3-25.3,go_nogo_deval,412,,<div class = centerbox><div class = fixation>+</div></div>,none,500,test,,,,,,,,,,,,432,32,850,0,stim,poldrack-single-stim,521,586825,0.0-6.3-26.3,go_nogo_deval,412,,<img class = center src='/static/experiments/go_nogo_deval/images/purple_pentagon.png'></img>,32,850,test,purple_pentagon,go1,32,8,3,,,,,,,-1,-1,1400,0,ITI,poldrack-single-stim,522,588227,0.0-6.3-27.3,go_nogo_deval,412,,<div></div>,32,1400,test,,,,,,,,,,,,-1,-1,500,0,fixation,poldrack-single-stim,523,588728,0.0-6.3-28.3,go_nogo_deval,412,,<div class = centerbox><div class = fixation>+</div></div>,none,500,test,,,,,,,,,,,,-1,-1,850,0,stim,poldrack-single-stim,524,589579,0.0-6.3-29.3,go_nogo_deval,412,,<img class = center src='/static/experiments/go_nogo_deval/images/red_circle.png'></img>,32,850,test,red_circle,nogo1,-1,9,3,,,,,,,-1,-1,1400,0,ITI,poldrack-single-stim,525,590981,0.0-6.3-30.3,go_nogo_deval,412,,<div></div>,32,1400,test,,,,,,,,,,,,-1,-1,500,0,fixation,poldrack-single-stim,526,591483,0.0-6.3-31.3,go_nogo_deval,412,,<div class = centerbox><div class = fixation>+</div></div>,none,500,test,,,,,,,,,,,,389,32,850,0,stim,poldrack-single-stim,527,592334,0.0-6.3-32.3,go_nogo_deval,412,,<img class = center src='/static/experiments/go_nogo_deval/images/purple_pentagon.png'></img>,32,850,test,purple_pentagon,go1,32,10,3,,,,,,,-1,-1,1400,0,ITI,poldrack-single-stim,528,593735,0.0-6.3-33.3,go_nogo_deval,412,,<div></div>,32,1400,test,,,,,,,,,,,,-1,-1,500,0,fixation,poldrack-single-stim,529,594237,0.0-6.3-34.3,go_nogo_deval,412,,<div class = centerbox><div class = fixation>+</div></div>,none,500,test,,,,,,,,,,,,403,32,850,0,stim,poldrack-single-stim,530,595088,0.0-6.3-35.3,go_nogo_deval,412,,<img class = center src='/static/experiments/go_nogo_deval/images/green_rhombus.png'></img>,32,850,test,green_rhombus,go2,32,11,3,,,,,,,-1,-1,1400,0,ITI,poldrack-single-stim,531,596490,0.0-6.3-36.3,go_nogo_deval,412,,<div></div>,32,1400,test,,,,,,,,,,,,-1,-1,500,0,fixation,poldrack-single-stim,532,596992,0.0-6.3-37.3,go_nogo_deval,412,,<div class = centerbox><div class = fixation>+</div></div>,none,500,test,,,,,,,,,,,,393,32,850,0,stim,poldrack-single-stim,533,597844,0.0-6.3-38.3,go_nogo_deval,412,,<img class = center src='/static/experiments/go_nogo_deval/images/green_rhombus.png'></img>,32,850,test,green_rhombus,go2,32,12,3,,,,,,,-1,-1,1400,0,ITI,poldrack-single-stim,534,599244,0.0-6.3-39.3,go_nogo_deval,412,,<div></div>,32,1400,test,,,,,,,,,,,,-1,-1,500,0,fixation,poldrack-single-stim,535,599746,0.0-6.3-40.3,go_nogo_deval,412,,<div class = centerbox><div class = fixation>+</div></div>,none,500,test,,,,,,,,,,,,598,32,850,0,stim,poldrack-single-stim,536,600598,0.0-6.3-41.3,go_nogo_deval,412,,<img class = center src='/static/experiments/go_nogo_deval/images/blue_triangle.png'></img>,32,850,test,blue_triangle,nogo2,-1,13,3,,,,,,,-1,-1,1400,0,ITI,poldrack-single-stim,537,601999,0.0-6.3-42.3,go_nogo_deval,412,,<div></div>,32,1400,test,,,,,,,,,,,,-1,-1,500,0,fixation,poldrack-single-stim,538,602500,0.0-6.3-43.3,go_nogo_deval,412,,<div class = centerbox><div class = fixation>+</div></div>,none,500,test,,,,,,,,,,,,497,32,850,0,stim,poldrack-single-stim,539,603352,0.0-6.3-44.3,go_nogo_deval,412,,<img class = center src='/static/experiments/go_nogo_deval/images/purple_pentagon.png'></img>,32,850,test,purple_pentagon,go1,32,14,3,,,,,,,-1,-1,1400,0,ITI,poldrack-single-stim,540,604753,0.0-6.3-45.3,go_nogo_deval,412,,<div></div>,32,1400,test,,,,,,,,,,,,-1,-1,500,0,fixation,poldrack-single-stim,541,605254,0.0-6.3-46.3,go_nogo_deval,412,,<div class = centerbox><div class = fixation>+</div></div>,none,500,test,,,,,,,,,,,,376,32,850,0,stim,poldrack-single-stim,542,606105,0.0-6.3-47.3,go_nogo_deval,412,,<img class = center src='/static/experiments/go_nogo_deval/images/purple_pentagon.png'></img>,32,850,test,purple_pentagon,go1,32,15,3,,,,,,,-1,-1,1400,0,ITI,poldrack-single-stim,543,607507,0.0-6.3-48.3,go_nogo_deval,412,,<div></div>,32,1400,test,,,,,,,,,,,,-1,-1,500,0,fixation,poldrack-single-stim,544,608009,0.0-6.3-49.3,go_nogo_deval,412,,<div class = centerbox><div class = fixation>+</div></div>,none,500,test,,,,,,,,,,,,401,32,850,0,stim,poldrack-single-stim,545,608861,0.0-6.3-50.3,go_nogo_deval,412,,<img class = center src='/static/experiments/go_nogo_deval/images/green_rhombus.png'></img>,32,850,test,green_rhombus,go2,32,16,3,,,,,,,-1,-1,1400,0,ITI,poldrack-single-stim,546,610262,0.0-6.3-51.3,go_nogo_deval,412,,<div></div>,32,1400,test,,,,,,,,,,,,-1,-1,500,0,fixation,poldrack-single-stim,547,610763,0.0-6.3-52.3,go_nogo_deval,412,,<div class = centerbox><div class = fixation>+</div></div>,none,500,test,,,,,,,,,,,,514,32,850,0,stim,poldrack-single-stim,548,611615,0.0-6.3-53.3,go_nogo_deval,412,,<img class = center src='/static/experiments/go_nogo_deval/images/purple_pentagon.png'></img>,32,850,test,purple_pentagon,go1,32,17,3,,,,,,,-1,-1,1400,0,ITI,poldrack-single-stim,549,613017,0.0-6.3-54.3,go_nogo_deval,412,,<div></div>,32,1400,test,,,,,,,,,,,,-1,-1,500,0,fixation,poldrack-single-stim,550,613518,0.0-6.3-55.3,go_nogo_deval,412,,<div class = centerbox><div class = fixation>+</div></div>,none,500,test,,,,,,,,,,,,-1,-1,850,0,stim,poldrack-single-stim,551,614370,0.0-6.3-56.3,go_nogo_deval,412,,<img class = center src='/static/experiments/go_nogo_deval/images/blue_triangle.png'></img>,32,850,test,blue_triangle,nogo2,-1,18,3,,,,,,,-1,-1,1400,0,ITI,poldrack-single-stim,552,615772,0.0-6.3-57.3,go_nogo_deval,412,,<div></div>,32,1400,test,,,,,,,,,,,,-1,-1,500,0,fixation,poldrack-single-stim,553,616274,0.0-6.3-58.3,go_nogo_deval,412,,<div class = centerbox><div class = fixation>+</div></div>,none,500,test,,,,,,,,,,,,-1,-1,850,0,stim,poldrack-single-stim,554,617125,0.0-6.3-59.3,go_nogo_deval,412,,<img class = center src='/static/experiments/go_nogo_deval/images/red_circle.png'></img>,32,850,test,red_circle,nogo1,-1,19,3,,,,,,,-1,-1,1400,0,ITI,poldrack-single-stim,555,618527,0.0-6.3-60.3,go_nogo_deval,412,,<div></div>,32,1400,test,,,,,,,,,,,,-1,-1,500,0,fixation,poldrack-single-stim,556,619029,0.0-6.3-61.3,go_nogo_deval,412,,<div class = centerbox><div class = fixation>+</div></div>,none,500,test,,,,,,,,,,,,597,32,850,0,stim,poldrack-single-stim,557,619880,0.0-6.3-62.3,go_nogo_deval,412,,<img class = center src='/static/experiments/go_nogo_deval/images/purple_pentagon.png'></img>,32,850,test,purple_pentagon,go1,32,20,3,,,,,,,-1,-1,1400,0,ITI,poldrack-single-stim,558,621282,0.0-6.3-63.3,go_nogo_deval,412,,<div></div>,32,1400,test,,,,,,,,,,,,-1,-1,500,0,fixation,poldrack-single-stim,559,621784,0.0-6.3-64.3,go_nogo_deval,412,,<div class = centerbox><div class = fixation>+</div></div>,none,500,test,,,,,,,,,,,,373,32,850,0,stim,poldrack-single-stim,560,622635,0.0-6.3-65.3,go_nogo_deval,412,,<img class = center src='/static/experiments/go_nogo_deval/images/green_rhombus.png'></img>,32,850,test,green_rhombus,go2,32,21,3,,,,,,,-1,-1,1400,0,ITI,poldrack-single-stim,561,624036,0.0-6.3-66.3,go_nogo_deval,412,,<div></div>,32,1400,test,,,,,,,,,,,,-1,-1,500,0,fixation,poldrack-single-stim,562,624538,0.0-6.3-67.3,go_nogo_deval,412,,<div class = centerbox><div class = fixation>+</div></div>,none,500,test,,,,,,,,,,,,375,32,850,0,stim,poldrack-single-stim,563,625389,0.0-6.3-68.3,go_nogo_deval,412,,<img class = center src='/static/experiments/go_nogo_deval/images/green_rhombus.png'></img>,32,850,test,green_rhombus,go2,32,22,3,,,,,,,-1,-1,1400,0,ITI,poldrack-single-stim,564,626790,0.0-6.3-69.3,go_nogo_deval,412,,<div></div>,32,1400,test,,,,,,,,,,,,-1,-1,500,0,fixation,poldrack-single-stim,565,627292,0.0-6.3-70.3,go_nogo_deval,412,,<div class = centerbox><div class = fixation>+</div></div>,none,500,test,,,,,,,,,,,,-1,-1,850,0,stim,poldrack-single-stim,566,628144,0.0-6.3-71.3,go_nogo_deval,412,,<img class = center src='/static/experiments/go_nogo_deval/images/red_circle.png'></img>,32,850,test,red_circle,nogo1,-1,23,3,,,,,,,-1,-1,1400,0,ITI,poldrack-single-stim,567,629545,0.0-6.3-72.3,go_nogo_deval,412,,<div></div>,32,1400,test,,,,,,,,,,,,-1,-1,500,0,fixation,poldrack-single-stim,568,630047,0.0-6.3-73.3,go_nogo_deval,412,,<div class = centerbox><div class = fixation>+</div></div>,none,500,test,,,,,,,,,,,