text,rt,key_press,block_duration,timing_post_trial,trial_id,trial_type,trial_index,time_elapsed,internal_node_id,exp_id,subject_ID,view_history,stimulus,possible_responses,stim_duration,exp_stage,stim,go_nogo_type,correct_response,current_trial,current_block,chosenStim,chosenCond,stimLeft,cond_left,stimRight,cond_right<div class = centerbox><p class = center-block-text>Welcome to the task!</p><p class = center-block-text>Press<strong> enter</strong> to continue.</p></div>,10222,13,10222,0,welcome,poldrack-text,0,10223,0.0-0.0,go_nogo_deval,466,,,,,,,,,,,,,,,,,63292,,,,instruction,poldrack-instructions,1,73517,0.0-1.0,go_nogo_deval,466,"[{""page_index"":0,""viewing_time"":4431},{""page_index"":1,""viewing_time"":58860}]",,,,,,,,,,,,,,,,7793,13,7793,0,stop_intro_phase1,poldrack-single-stim,2,82313,0.0-2.0,go_nogo_deval,466,,"<div class = centerbox><p class = block-text>We will now start the practice for the experiment.<br><br>For these trials, you must press the <strong>spacebar </strong> or have <strong>no response</strong> depending on the shape of the stimulus.  Make sure to respond as quickly and accurately as possible to the shape. <br><br> The responses for each shape are as follows: <ul list-text><li>pentagon: spacebar</li><li>triangle: spacebar</li><li>circle: no response</li><li>rhombus: no response</li></ul></p><p class = block-text>Remember these rules before you proceed.</p><p class = block-text>Press <strong> enter</strong> to begin.</p></div>",13,7793,,,,,,,,,,,,,3126,13,3126,0,practice-no-stop-feedback,poldrack-single-stim,3,85441,0.0-3.0-0.0,go_nogo_deval,466,,<div class = centerbox><p class = block-text>We will now start with a practice session. In this practice concentrate on responding quickly and accurately to each stimuli unless it requires no response.</p><p class = block-text>Press enter to continue.</p></div>,13,3126,,,,,,,,,,,,,-1,-1,500,0,prompt_fixation,poldrack-single-stim,4,85944,0.0-3.0-1.0,go_nogo_deval,466,,<div class = centerbox><div class = fixation>+</div></div>,none,500,practice,,,,,,,,,,,,-1,-1,850,0,stim,poldrack-single-stim,5,86796,0.0-3.0-2.0,go_nogo_deval,466,,<img class = center src='/static/experiments/go_nogo_deval/images/green_rhombus.png'></img>,32,850,practice,green_rhombus,nogo2,-1,0,0,,,,,,,-1,-1,1400,0,ITI,poldrack-single-stim,6,88197,0.0-3.0-3.0,go_nogo_deval,466,,<div></div>,32,1400,practice,,,,,,,,,,,,-1,-1,500,0,prompt_fixation,poldrack-single-stim,7,88699,0.0-3.0-4.0,go_nogo_deval,466,,<div class = centerbox><div class = fixation>+</div></div>,none,500,practice,,,,,,,,,,,,475,32,850,0,stim,poldrack-single-stim,8,89551,0.0-3.0-5.0,go_nogo_deval,466,,<img class = center src='/static/experiments/go_nogo_deval/images/purple_triangle.png'></img>,32,850,practice,purple_triangle,go2,32,1,0,,,,,,,-1,-1,1400,0,ITI,poldrack-single-stim,9,90953,0.0-3.0-6.0,go_nogo_deval,466,,<div></div>,32,1400,practice,,,,,,,,,,,,-1,-1,500,0,prompt_fixation,poldrack-single-stim,10,91454,0.0-3.0-7.0,go_nogo_deval,466,,<div class = centerbox><div class = fixation>+</div></div>,none,500,practice,,,,,,,,,,,,453,32,850,0,stim,poldrack-single-stim,11,92306,0.0-3.0-8.0,go_nogo_deval,466,,<img class = center src='/static/experiments/go_nogo_deval/images/purple_triangle.png'></img>,32,850,practice,purple_triangle,go2,32,2,0,,,,,,,-1,-1,1400,0,ITI,poldrack-single-stim,12,93708,0.0-3.0-9.0,go_nogo_deval,466,,<div></div>,32,1400,practice,,,,,,,,,,,,-1,-1,500,0,prompt_fixation,poldrack-single-stim,13,94210,0.0-3.0-10.0,go_nogo_deval,466,,<div class = centerbox><div class = fixation>+</div></div>,none,500,practice,,,,,,,,,,,,477,32,850,0,stim,poldrack-single-stim,14,95061,0.0-3.0-11.0,go_nogo_deval,466,,<img class = center src='/static/experiments/go_nogo_deval/images/purple_triangle.png'></img>,32,850,practice,purple_triangle,go2,32,3,0,,,,,,,-1,-1,1400,0,ITI,poldrack-single-stim,15,96463,0.0-3.0-12.0,go_nogo_deval,466,,<div></div>,32,1400,practice,,,,,,,,,,,,-1,-1,500,0,prompt_fixation,poldrack-single-stim,16,96965,0.0-3.0-13.0,go_nogo_deval,466,,<div class = centerbox><div class = fixation>+</div></div>,none,500,practice,,,,,,,,,,,,-1,-1,850,0,stim,poldrack-single-stim,17,97816,0.0-3.0-14.0,go_nogo_deval,466,,<img class = center src='/static/experiments/go_nogo_deval/images/green_rhombus.png'></img>,32,850,practice,green_rhombus,nogo2,-1,4,0,,,,,,,-1,-1,1400,0,ITI,poldrack-single-stim,18,99218,0.0-3.0-15.0,go_nogo_deval,466,,<div></div>,32,1400,practice,,,,,,,,,,,,-1,-1,500,0,prompt_fixation,poldrack-single-stim,19,99720,0.0-3.0-16.0,go_nogo_deval,466,,<div class = centerbox><div class = fixation>+</div></div>,none,500,practice,,,,,,,,,,,,503,32,850,0,stim,poldrack-single-stim,20,100571,0.0-3.0-17.0,go_nogo_deval,466,,<img class = center src='/static/experiments/go_nogo_deval/images/blue_pentagon.png'></img>,32,850,practice,blue_pentagon,go1,32,5,0,,,,,,,-1,-1,1400,0,ITI,poldrack-single-stim,21,101972,0.0-3.0-18.0,go_nogo_deval,466,,<div></div>,32,1400,practice,,,,,,,,,,,,-1,-1,500,0,prompt_fixation,poldrack-single-stim,22,102474,0.0-3.0-19.0,go_nogo_deval,466,,<div class = centerbox><div class = fixation>+</div></div>,none,500,practice,,,,,,,,,,,,402,32,850,0,stim,poldrack-single-stim,23,103326,0.0-3.0-20.0,go_nogo_deval,466,,<img class = center src='/static/experiments/go_nogo_deval/images/purple_triangle.png'></img>,32,850,practice,purple_triangle,go2,32,6,0,,,,,,,-1,-1,1400,0,ITI,poldrack-single-stim,24,104728,0.0-3.0-21.0,go_nogo_deval,466,,<div></div>,32,1400,practice,,,,,,,,,,,,-1,-1,500,0,prompt_fixation,poldrack-single-stim,25,105230,0.0-3.0-22.0,go_nogo_deval,466,,<div class = centerbox><div class = fixation>+</div></div>,none,500,practice,,,,,,,,,,,,-1,-1,850,0,stim,poldrack-single-stim,26,106081,0.0-3.0-23.0,go_nogo_deval,466,,<img class = center src='/static/experiments/go_nogo_deval/images/red_circle.png'></img>,32,850,practice,red_circle,nogo1,-1,7,0,,,,,,,-1,-1,1400,0,ITI,poldrack-single-stim,27,107483,0.0-3.0-24.0,go_nogo_deval,466,,<div></div>,32,1400,practice,,,,,,,,,,,,-1,-1,500,0,prompt_fixation,poldrack-single-stim,28,107984,0.0-3.0-25.0,go_nogo_deval,466,,<div class = centerbox><div class = fixation>+</div></div>,none,500,practice,,,,,,,,,,,,-1,-1,850,0,stim,poldrack-single-stim,29,108836,0.0-3.0-26.0,go_nogo_deval,466,,<img class = center src='/static/experiments/go_nogo_deval/images/red_circle.png'></img>,32,850,practice,red_circle,nogo1,-1,8,0,,,,,,,-1,-1,1400,0,ITI,poldrack-single-stim,30,110238,0.0-3.0-27.0,go_nogo_deval,466,,<div></div>,32,1400,practice,,,,,,,,,,,,-1,-1,500,0,prompt_fixation,poldrack-single-stim,31,110740,0.0-3.0-28.0,go_nogo_deval,466,,<div class = centerbox><div class = fixation>+</div></div>,none,500,practice,,,,,,,,,,,,463,32,850,0,stim,poldrack-single-stim,32,111592,0.0-3.0-29.0,go_nogo_deval,466,,<img class = center src='/static/experiments/go_nogo_deval/images/purple_triangle.png'></img>,32,850,practice,purple_triangle,go2,32,9,0,,,,,,,-1,-1,1400,0,ITI,poldrack-single-stim,33,112994,0.0-3.0-30.0,go_nogo_deval,466,,<div></div>,32,1400,practice,,,,,,,,,,,,-1,-1,500,0,prompt_fixation,poldrack-single-stim,34,113496,0.0-3.0-31.0,go_nogo_deval,466,,<div class = centerbox><div class = fixation>+</div></div>,none,500,practice,,,,,,,,,,,,-1,-1,850,0,stim,poldrack-single-stim,35,114348,0.0-3.0-32.0,go_nogo_deval,466,,<img class = center src='/static/experiments/go_nogo_deval/images/green_rhombus.png'></img>,32,850,practice,green_rhombus,nogo2,-1,10,0,,,,,,,-1,-1,1400,0,ITI,poldrack-single-stim,36,115749,0.0-3.0-33.0,go_nogo_deval,466,,<div></div>,32,1400,practice,,,,,,,,,,,,-1,-1,500,0,prompt_fixation,poldrack-single-stim,37,116251,0.0-3.0-34.0,go_nogo_deval,466,,<div class = centerbox><div class = fixation>+</div></div>,none,500,practice,,,,,,,,,,,,-1,-1,850,0,stim,poldrack-single-stim,38,117103,0.0-3.0-35.0,go_nogo_deval,466,,<img class = center src='/static/experiments/go_nogo_deval/images/red_circle.png'></img>,32,850,practice,red_circle,nogo1,-1,11,0,,,,,,,-1,-1,1400,0,ITI,poldrack-single-stim,39,118504,0.0-3.0-36.0,go_nogo_deval,466,,<div></div>,32,1400,practice,,,,,,,,,,,,-1,-1,500,0,prompt_fixation,poldrack-single-stim,40,119005,0.0-3.0-37.0,go_nogo_deval,466,,<div class = centerbox><div class = fixation>+</div></div>,none,500,practice,,,,,,,,,,,,534,32,850,0,stim,poldrack-single-stim,41,119856,0.0-3.0-38.0,go_nogo_deval,466,,<img class = center src='/static/experiments/go_nogo_deval/images/blue_pentagon.png'></img>,32,850,practice,blue_pentagon,go1,32,12,0,,,,,,,-1,-1,1400,0,ITI,poldrack-single-stim,42,121258,0.0-3.0-39.0,go_nogo_deval,466,,<div></div>,32,1400,practice,,,,,,,,,,,,-1,-1,500,0,prompt_fixation,poldrack-single-stim,43,121760,0.0-3.0-40.0,go_nogo_deval,466,,<div class = centerbox><div class = fixation>+</div></div>,none,500,practice,,,,,,,,,,,,557,32,850,0,stim,poldrack-single-stim,44,122612,0.0-3.0-41.0,go_nogo_deval,466,,<img class = center src='/static/experiments/go_nogo_deval/images/blue_pentagon.png'></img>,32,850,practice,blue_pentagon,go1,32,13,0,,,,,,,-1,-1,1400,0,ITI,poldrack-single-stim,45,124013,0.0-3.0-42.0,go_nogo_deval,466,,<div></div>,32,1400,practice,,,,,,,,,,,,-1,-1,500,0,prompt_fixation,poldrack-single-stim,46,124516,0.0-3.0-43.0,go_nogo_deval,466,,<div class = centerbox><div class = fixation>+</div></div>,none,500,practice,,,,,,,,,,,,412,32,850,0,stim,poldrack-single-stim,47,125368,0.0-3.0-44.0,go_nogo_deval,466,,<img class = center src='/static/experiments/go_nogo_deval/images/blue_pentagon.png'></img>,32,850,practice,blue_pentagon,go1,32,14,0,,,,,,,-1,-1,1400,0,ITI,poldrack-single-stim,48,126769,0.0-3.0-45.0,go_nogo_deval,466,,<div></div>,32,1400,practice,,,,,,,,,,,,-1,-1,500,0,prompt_fixation,poldrack-single-stim,49,127271,0.0-3.0-46.0,go_nogo_deval,466,,<div class = centerbox><div class = fixation>+</div></div>,none,500,practice,,,,,,,,,,,,389,32,850,0,stim,poldrack-single-stim,50,128123,0.0-3.0-47.0,go_nogo_deval,466,,<img class = center src='/static/experiments/go_nogo_deval/images/blue_pentagon.png'></img>,32,850,practice,blue_pentagon,go1,32,15,0,,,,,,,-1,-1,1400,0,ITI,poldrack-single-stim,51,129525,0.0-3.0-48.0,go_nogo_deval,466,,<div></div>,32,1400,practice,,,,,,,,,,,,-1,-1,500,0,prompt_fixation,poldrack-single-stim,52,130026,0.0-3.0-49.0,go_nogo_deval,466,,<div class = centerbox><div class = fixation>+</div></div>,none,500,practice,,,,,,,,,,,,413,32,850,0,stim,poldrack-single-stim,53,130878,0.0-3.0-50.0,go_nogo_deval,466,,<img class = center src='/static/experiments/go_nogo_deval/images/blue_pentagon.png'></img>,32,850,practice,blue_pentagon,go1,32,16,0,,,,,,,-1,-1,1400,0,ITI,poldrack-single-stim,54,132280,0.0-3.0-51.0,go_nogo_deval,466,,<div></div>,32,1400,practice,,,,,,,,,,,,-1,-1,500,0,prompt_fixation,poldrack-single-stim,55,132782,0.0-3.0-52.0,go_nogo_deval,466,,<div class = centerbox><div class = fixation>+</div></div>,none,500,practice,,,,,,,,,,,,493,32,850,0,stim,poldrack-single-stim,56,133635,0.0-3.0-53.0,go_nogo_deval,466,,<img class = center src='/static/experiments/go_nogo_deval/images/purple_triangle.png'></img>,32,850,practice,purple_triangle,go2,32,17,0,,,,,,,-1,-1,1400,0,ITI,poldrack-single-stim,57,135036,0.0-3.0-54.0,go_nogo_deval,466,,<div></div>,32,1400,practice,,,,,,,,,,,,3064,13,3064,0,practice-no-stop-feedback,poldrack-single-stim,58,138102,0.0-4.0,go_nogo_deval,466,,<div class = centerbox><p class = block-text><br>Please take this time to read your feedback and to take a short break! Press enter to continue</p><p class = block-text><strong>Average reaction time:  464 ms. Accuracy: 100%</strong></p><p class = block-text>Done with this practice.</p></div>,13,3064,,,,,,,,,,,,,36237,13,36237,0,main_stop_intro_phase3,poldrack-single-stim,59,174339,0.0-5.0,go_nogo_deval,466,,"<div class = centerbox><p class = block-text>We will now start the main phase of the experiment.<br><br>These trials are the same as the trials that you have just completed. <br><br>The rules for each shape are as follows:  <br><ul list-text><li>pentagon: spacebar</li><li>triangle: spacebar</li><li>circle: no response</li><li>rhombus: no response</li></ul></p><p class = block-text>Remember these rules before you proceed, as they will no longer be presented during the trial.</p><p class = block-text>Press <strong> enter</strong> to begin.</p></div>",13,36237,,,,,,,,,,,,,1473,13,1473,0,practice-no-stop-feedback,poldrack-single-stim,60,175812,0.0-6.0-0.0,go_nogo_deval,466,,"<div class = centerbox><p class = block-text>We will now start with a test session. In this test, concentrate on responding quickly and accurately to each stimuli unless it requires no response.</p><p class = block-text>Press enter to continue.</p></div>",13,1473,,,,,,,,,,,,,-1,-1,500,0,fixation,poldrack-single-stim,61,176313,0.0-6.0-1.0,go_nogo_deval,466,,<div class = centerbox><div class = fixation>+</div></div>,none,500,test,,,,,,,,,,,,386,32,850,0,stim,poldrack-single-stim,62,177165,0.0-6.0-2.0,go_nogo_deval,466,,<img class = center src='/static/experiments/go_nogo_deval/images/purple_triangle.png'></img>,32,850,test,purple_triangle,go2,32,0,0,,,,,,,-1,-1,1400,0,ITI,poldrack-single-stim,63,178567,0.0-6.0-3.0,go_nogo_deval,466,,<div></div>,32,1400,test,,,,,,,,,,,,-1,-1,500,0,fixation,poldrack-single-stim,64,179069,0.0-6.0-4.0,go_nogo_deval,466,,<div class = centerbox><div class = fixation>+</div></div>,none,500,test,,,,,,,,,,,,-1,-1,850,0,stim,poldrack-single-stim,65,179921,0.0-6.0-5.0,go_nogo_deval,466,,<img class = center src='/static/experiments/go_nogo_deval/images/green_rhombus.png'></img>,32,850,test,green_rhombus,nogo2,-1,1,0,,,,,,,-1,-1,1400,0,ITI,poldrack-single-stim,66,181323,0.0-6.0-6.0,go_nogo_deval,466,,<div></div>,32,1400,test,,,,,,,,,,,,-1,-1,500,0,fixation,poldrack-single-stim,67,181825,0.0-6.0-7.0,go_nogo_deval,466,,<div class = centerbox><div class = fixation>+</div></div>,none,500,test,,,,,,,,,,,,433,32,850,0,stim,poldrack-single-stim,68,182675,0.0-6.0-8.0,go_nogo_deval,466,,<img class = center src='/static/experiments/go_nogo_deval/images/purple_triangle.png'></img>,32,850,test,purple_triangle,go2,32,2,0,,,,,,,-1,-1,1400,0,ITI,poldrack-single-stim,69,184077,0.0-6.0-9.0,go_nogo_deval,466,,<div></div>,32,1400,test,,,,,,,,,,,,-1,-1,500,0,fixation,poldrack-single-stim,70,184579,0.0-6.0-10.0,go_nogo_deval,466,,<div class = centerbox><div class = fixation>+</div></div>,none,500,test,,,,,,,,,,,,-1,-1,850,0,stim,poldrack-single-stim,71,185431,0.0-6.0-11.0,go_nogo_deval,466,,<img class = center src='/static/experiments/go_nogo_deval/images/green_rhombus.png'></img>,32,850,test,green_rhombus,nogo2,-1,3,0,,,,,,,-1,-1,1400,0,ITI,poldrack-single-stim,72,186832,0.0-6.0-12.0,go_nogo_deval,466,,<div></div>,32,1400,test,,,,,,,,,,,,-1,-1,500,0,fixation,poldrack-single-stim,73,187333,0.0-6.0-13.0,go_nogo_deval,466,,<div class = centerbox><div class = fixation>+</div></div>,none,500,test,,,,,,,,,,,,370,32,850,0,stim,poldrack-single-stim,74,188186,0.0-6.0-14.0,go_nogo_deval,466,,<img class = center src='/static/experiments/go_nogo_deval/images/purple_triangle.png'></img>,32,850,test,purple_triangle,go2,32,4,0,,,,,,,-1,-1,1400,0,ITI,poldrack-single-stim,75,189588,0.0-6.0-15.0,go_nogo_deval,466,,<div></div>,32,1400,test,,,,,,,,,,,,-1,-1,500,0,fixation,poldrack-single-stim,76,190089,0.0-6.0-16.0,go_nogo_deval,466,,<div class = centerbox><div class = fixation>+</div></div>,none,500,test,,,,,,,,,,,,-1,-1,850,0,stim,poldrack-single-stim,77,190941,0.0-6.0-17.0,go_nogo_deval,466,,<img class = center src='/static/experiments/go_nogo_deval/images/green_rhombus.png'></img>,32,850,test,green_rhombus,nogo2,-1,5,0,,,,,,,-1,-1,1400,0,ITI,poldrack-single-stim,78,192343,0.0-6.0-18.0,go_nogo_deval,466,,<div></div>,32,1400,test,,,,,,,,,,,,-1,-1,500,0,fixation,poldrack-single-stim,79,192844,0.0-6.0-19.0,go_nogo_deval,466,,<div class = centerbox><div class = fixation>+</div></div>,none,500,test,,,,,,,,,,,,-1,-1,850,0,stim,poldrack-single-stim,80,193696,0.0-6.0-20.0,go_nogo_deval,466,,<img class = center src='/static/experiments/go_nogo_deval/images/green_rhombus.png'></img>,32,850,test,green_rhombus,nogo2,-1,6,0,,,,,,,-1,-1,1400,0,ITI,poldrack-single-stim,81,195098,0.0-6.0-21.0,go_nogo_deval,466,,<div></div>,32,1400,test,,,,,,,,,,,,-1,-1,500,0,fixation,poldrack-single-stim,82,195599,0.0-6.0-22.0,go_nogo_deval,466,,<div class = centerbox><div class = fixation>+</div></div>,none,500,test,,,,,,,,,,,,473,32,850,0,stim,poldrack-single-stim,83,196451,0.0-6.0-23.0,go_nogo_deval,466,,<img class = center src='/static/experiments/go_nogo_deval/images/blue_pentagon.png'></img>,32,850,test,blue_pentagon,go1,32,7,0,,,,,,,-1,-1,1400,0,ITI,poldrack-single-stim,84,197853,0.0-6.0-24.0,go_nogo_deval,466,,<div></div>,32,1400,test,,,,,,,,,,,,-1,-1,500,0,fixation,poldrack-single-stim,85,198354,0.0-6.0-25.0,go_nogo_deval,466,,<div class = centerbox><div class = fixation>+</div></div>,none,500,test,,,,,,,,,,,,386,32,850,0,stim,poldrack-single-stim,86,199206,0.0-6.0-26.0,go_nogo_deval,466,,<img class = center src='/static/experiments/go_nogo_deval/images/purple_triangle.png'></img>,32,850,test,purple_triangle,go2,32,8,0,,,,,,,-1,-1,1400,0,ITI,poldrack-single-stim,87,200608,0.0-6.0-27.0,go_nogo_deval,466,,<div></div>,32,1400,test,,,,,,,,,,,,-1,-1,500,0,fixation,poldrack-single-stim,88,201110,0.0-6.0-28.0,go_nogo_deval,466,,<div class = centerbox><div class = fixation>+</div></div>,none,500,test,,,,,,,,,,,,-1,-1,850,0,stim,poldrack-single-stim,89,201962,0.0-6.0-29.0,go_nogo_deval,466,,<img class = center src='/static/experiments/go_nogo_deval/images/red_circle.png'></img>,32,850,test,red_circle,nogo1,-1,9,0,,,,,,,-1,-1,1400,0,ITI,poldrack-single-stim,90,203364,0.0-6.0-30.0,go_nogo_deval,466,,<div></div>,32,1400,test,,,,,,,,,,,,-1,-1,500,0,fixation,poldrack-single-stim,91,203865,0.0-6.0-31.0,go_nogo_deval,466,,<div class = centerbox><div class = fixation>+</div></div>,none,500,test,,,,,,,,,,,,397,32,850,0,stim,poldrack-single-stim,92,204716,0.0-6.0-32.0,go_nogo_deval,466,,<img class = center src='/static/experiments/go_nogo_deval/images/blue_pentagon.png'></img>,32,850,test,blue_pentagon,go1,32,10,0,,,,,,,-1,-1,1400,0,ITI,poldrack-single-stim,93,206118,0.0-6.0-33.0,go_nogo_deval,466,,<div></div>,32,1400,test,,,,,,,,,,,,-1,-1,500,0,fixation,poldrack-single-stim,94,206620,0.0-6.0-34.0,go_nogo_deval,466,,<div class = centerbox><div class = fixation>+</div></div>,none,500,test,,,,,,,,,,,,-1,-1,850,0,stim,poldrack-single-stim,95,207472,0.0-6.0-35.0,go_nogo_deval,466,,<img class = center src='/static/experiments/go_nogo_deval/images/red_circle.png'></img>,32,850,test,red_circle,nogo1,-1,11,0,,,,,,,-1,-1,1400,0,ITI,poldrack-single-stim,96,208872,0.0-6.0-36.0,go_nogo_deval,466,,<div></div>,32,1400,test,,,,,,,,,,,,-1,-1,500,0,fixation,poldrack-single-stim,97,209374,0.0-6.0-37.0,go_nogo_deval,466,,<div class = centerbox><div class = fixation>+</div></div>,none,500,test,,,,,,,,,,,,401,32,850,0,stim,poldrack-single-stim,98,210226,0.0-6.0-38.0,go_nogo_deval,466,,<img class = center src='/static/experiments/go_nogo_deval/images/green_rhombus.png'></img>,32,850,test,green_rhombus,nogo2,-1,12,0,,,,,,,-1,-1,1400,0,ITI,poldrack-single-stim,99,211628,0.0-6.0-39.0,go_nogo_deval,466,,<div></div>,32,1400,test,,,,,,,,,,,,-1,-1,500,0,fixation,poldrack-single-stim,100,212129,0.0-6.0-40.0,go_nogo_deval,466,,<div class = centerbox><div class = fixation>+</div></div>,none,500,test,,,,,,,,,,,,-1,-1,850,0,stim,poldrack-single-stim,101,212981,0.0-6.0-41.0,go_nogo_deval,466,,<img class = center src='/static/experiments/go_nogo_deval/images/green_rhombus.png'></img>,32,850,test,green_rhombus,nogo2,-1,13,0,,,,,,,-1,-1,1400,0,ITI,poldrack-single-stim,102,214382,0.0-6.0-42.0,go_nogo_deval,466,,<div></div>,32,1400,test,,,,,,,,,,,,-1,-1,500,0,fixation,poldrack-single-stim,103,214884,0.0-6.0-43.0,go_nogo_deval,466,,<div class = centerbox><div class = fixation>+</div></div>,none,500,test,,,,,,,,,,,,617,32,850,0,stim,poldrack-single-stim,104,215736,0.0-6.0-44.0,go_nogo_deval,466,,<img class = center src='/static/experiments/go_nogo_deval/images/blue_pentagon.png'></img>,32,850,test,blue_pentagon,go1,32,14,0,,,,,,,-1,-1,1400,0,ITI,poldrack-single-stim,105,217138,0.0-6.0-45.0,go_nogo_deval,466,,<div></div>,32,1400,test,,,,,,,,,,,,-1,-1,500,0,fixation,poldrack-single-stim,106,217640,0.0-6.0-46.0,go_nogo_deval,466,,<div class = centerbox><div class = fixation>+</div></div>,none,500,test,,,,,,,,,,,,483,32,850,0,stim,poldrack-single-stim,107,218491,0.0-6.0-47.0,go_nogo_deval,466,,<img class = center src='/static/experiments/go_nogo_deval/images/purple_triangle.png'></img>,32,850,test,purple_triangle,go2,32,15,0,,,,,,,-1,-1,1400,0,ITI,poldrack-single-stim,108,219893,0.0-6.0-48.0,go_nogo_deval,466,,<div></div>,32,1400,test,,,,,,,,,,,,-1,-1,500,0,fixation,poldrack-single-stim,109,220395,0.0-6.0-49.0,go_nogo_deval,466,,<div class = centerbox><div class = fixation>+</div></div>,none,500,test,,,,,,,,,,,,508,32,850,0,stim,poldrack-single-stim,110,221247,0.0-6.0-50.0,go_nogo_deval,466,,<img class = center src='/static/experiments/go_nogo_deval/images/purple_triangle.png'></img>,32,850,test,purple_triangle,go2,32,16,0,,,,,,,-1,-1,1400,0,ITI,poldrack-single-stim,111,222649,0.0-6.0-51.0,go_nogo_deval,466,,<div></div>,32,1400,test,,,,,,,,,,,,-1,-1,500,0,fixation,poldrack-single-stim,112,223151,0.0-6.0-52.0,go_nogo_deval,466,,<div class = centerbox><div class = fixation>+</div></div>,none,500,test,,,,,,,,,,,,417,32,850,0,stim,poldrack-single-stim,113,224002,0.0-6.0-53.0,go_nogo_deval,466,,<img class = center src='/static/experiments/go_nogo_deval/images/purple_triangle.png'></img>,32,850,test,purple_triangle,go2,32,17,0,,,,,,,-1,-1,1400,0,ITI,poldrack-single-stim,114,225404,0.0-6.0-54.0,go_nogo_deval,466,,<div></div>,32,1400,test,,,,,,,,,,,,-1,-1,500,0,fixation,poldrack-single-stim,115,225905,0.0-6.0-55.0,go_nogo_deval,466,,<div class = centerbox><div class = fixation>+</div></div>,none,500,test,,,,,,,,,,,,475,32,850,0,stim,poldrack-single-stim,116,226757,0.0-6.0-56.0,go_nogo_deval,466,,<img class = center src='/static/experiments/go_nogo_deval/images/purple_triangle.png'></img>,32,850,test,purple_triangle,go2,32,18,0,,,,,,,-1,-1,1400,0,ITI,poldrack-single-stim,117,228158,0.0-6.0-57.0,go_nogo_deval,466,,<div></div>,32,1400,test,,,,,,,,,,,,-1,-1,500,0,fixation,poldrack-single-stim,118,228660,0.0-6.0-58.0,go_nogo_deval,466,,<div class = centerbox><div class = fixation>+</div></div>,none,500,test,,,,,,,,,,,,-1,-1,850,0,stim,poldrack-single-stim,119,229512,0.0-6.0-59.0,go_nogo_deval,466,,<img class = center src='/static/experiments/go_nogo_deval/images/red_circle.png'></img>,32,850,test,red_circle,nogo1,-1,19,0,,,,,,,-1,-1,1400,0,ITI,poldrack-single-stim,120,230913,0.0-6.0-60.0,go_nogo_deval,466,,<div></div>,32,1400,test,,,,,,,,,,,,-1,-1,500,0,fixation,poldrack-single-stim,121,231415,0.0-6.0-61.0,go_nogo_deval,466,,<div class = centerbox><div class = fixation>+</div></div>,none,500,test,,,,,,,,,,,,468,32,850,0,stim,poldrack-single-stim,122,232267,0.0-6.0-62.0,go_nogo_deval,466,,<img class = center src='/static/experiments/go_nogo_deval/images/blue_pentagon.png'></img>,32,850,test,blue_pentagon,go1,32,20,0,,,,,,,-1,-1,1400,0,ITI,poldrack-single-stim,123,233669,0.0-6.0-63.0,go_nogo_deval,466,,<div></div>,32,1400,test,,,,,,,,,,,,-1,-1,500,0,fixation,poldrack-single-stim,124,234169,0.0-6.0-64.0,go_nogo_deval,466,,<div class = centerbox><div class = fixation>+</div></div>,none,500,test,,,,,,,,,,,,525,32,850,0,stim,poldrack-single-stim,125,235021,0.0-6.0-65.0,go_nogo_deval,466,,<img class = center src='/static/experiments/go_nogo_deval/images/blue_pentagon.png'></img>,32,850,test,blue_pentagon,go1,32,21,0,,,,,,,-1,-1,1400,0,ITI,poldrack-single-stim,126,236423,0.0-6.0-66.0,go_nogo_deval,466,,<div></div>,32,1400,test,,,,,,,,,,,,-1,-1,500,0,fixation,poldrack-single-stim,127,236925,0.0-6.0-67.0,go_nogo_deval,466,,<div class = centerbox><div class = fixation>+</div></div>,none,500,test,,,,,,,,,,,,-1,-1,850,0,stim,poldrack-single-stim,128,237777,0.0-6.0-68.0,go_nogo_deval,466,,<img class = center src='/static/experiments/go_nogo_deval/images/red_circle.png'></img>,32,850,test,red_circle,nogo1,-1,22,0,,,,,,,-1,-1,1400,0,ITI,poldrack-single-stim,129,239179,0.0-6.0-69.0,go_nogo_deval,466,,<div></div>,32,1400,test,,,,,,,,,,,,-1,-1,500,0,fixation,poldrack-single-stim,130,239680,0.0-6.0-70.0,go_nogo_deval,466,,<div class = centerbox><div class = fixation>+</div></div>,none,500,test,,,,,,,,,,,,-1,-1,850,0,stim,poldrack-single-stim,131,240532,0.0-6.0-71.0,go_nogo_deval,466,,<img class = center src='/static/experiments/go_nogo_deval/images/red_circle.png'></img>,32,850,test,red_circle,nogo1,-1,23,0,,,,,,,-1,-1,1400,0,ITI,poldrack-single-stim,132,241935,0.0-6.0-72.0,go_nogo_deval,466,,<div></div>,32,1400,test,,,,,,,,,,,,-1,-1,500,0,fixation,poldrack-single-stim,133,242436,0.0-6.0-73.0,go_nogo_deval,466,,<div class = centerbox><div class = fixation>+</div></div>,none,500,test,,,,,,,,,,,,450,32,850,0,stim,poldrack-single-stim,134,243288,0.0-6.0-74.0,go_nogo_deval,466,,<img class = center src='/static/experiments/go_nogo_deval/images/purple_triangle.png'></img>,32,850,test,purple_triangle,go2,32,24,0,,,,,,,-1,-1,1400,0,ITI,poldrack-single-stim,135,244690,0.0-6.0-75.0,go_nogo_deval,466,,<div></div>,32,1400,test,,,,,,,,,,,,-1,-1,500,0,fixation,poldrack-single-stim,136,245192,0.0-6.0-76.0,go_nogo_deval,466,,<div class = centerbox><div class = fixation>+</div></div>,none,500,test,,,,,,,,,,,,-1,-1,850,0,stim,poldrack-single-stim,137,246043,0.0-6.0-77.0,go_nogo_deval,466,,<img class = center src='/static/experiments/go_nogo_deval/images/green_rhombus.png'></img>,32,850,test,green_rhombus,nogo2,-1,25,0,,,,,,,-1,-1,1400,0,ITI,poldrack-single-stim,138,247445,0.0-6.0-78.0,go_nogo_deval,466,,<div></div>,32,1400,test,,,,,,,,,,,,-1,-1,500,0,fixation,poldrack-single-stim,139,247947,0.0-6.0-79.0,go_nogo_deval,466,,<div class = centerbox><div class = fixation>+</div></div>,none,500,test,,,,,,,,,,,,439,32,850,0,stim,poldrack-single-stim,140,248799,0.0-6.0-80.0,go_nogo_deval,466,,<img class = center src='/static/experiments/go_nogo_deval/images/blue_pentagon.png'></img>,32,850,test,blue_pentagon,go1,32,26,0,,,,,,,-1,-1,1400,0,ITI,poldrack-single-stim,141,250201,0.0-6.0-81.0,go_nogo_deval,466,,<div></div>,32,1400,test,,,,,,,,,,,,-1,-1,500,0,fixation,poldrack-single-stim,142,250701,0.0-6.0-82.0,go_nogo_deval,466,,<div class = centerbox><div class = fixation>+</div></div>,none,500,test,,,,,,,,,,,,-1,-1,850,0,stim,poldrack-single-stim,143,251553,0.0-6.0-83.0,go_nogo_deval,466,,<img class = center src='/static/experiments/go_nogo_deval/images/green_rhombus.png'></img>,32,850,test,green_rhombus,nogo2,-1,27,0,,,,,,,-1,-1,1400,0,ITI,poldrack-single-stim,144,252955,0.0-6.0-84.0,go_nogo_deval,466,,<div></div>,32,1400,test,,,,,,,,,,,,-1,-1,500,0,fixation,poldrack-single-stim,145,253457,0.0-6.0-85.0,go_nogo_deval,466,,<div class = centerbox><div class = fixation>+</div></div>,none,500,test,,,,,,,,,,,,510,32,850,0,stim,poldrack-single-stim,146,254309,0.0-6.0-86.0,go_nogo_deval,466,,<img class = center src='/static/experiments/go_nogo_deval/images/purple_triangle.png'></img>,32,850,test,purple_triangle,go2,32,28,0,,,,,,,-1,-1,1400,0,ITI,poldrack-single-stim,147,255711,0.0-6.0-87.0,go_nogo_deval,466,,<div></div>,32,1400,test,,,,,,,,,,,,-1,-1,500,0,fixation,poldrack-single-stim,148,256212,0.0-6.0-88.0,go_nogo_deval,466,,<div class = centerbox><div class = fixation>+</div></div>,none,500,test,,,,,,,,,,,,453,32,850,0,stim,poldrack-single-stim,149,257064,0.0-6.0-89.0,go_nogo_deval,466,,<img class = center src='/static/experiments/go_nogo_deval/images/purple_triangle.png'></img>,32,850,test,purple_triangle,go2,32,29,0,,,,,,,-1,-1,1400,0,ITI,poldrack-single-stim,150,258466,0.0-6.0-90.0,go_nogo_deval,466,,<div></div>,32,1400,test,,,,,,,,,,,,-1,-1,500,0,fixation,poldrack-single-stim,151,258967,0.0-6.0-91.0,go_nogo_deval,466,,<div class = centerbox><div class = fixation>+</div></div>,none,500,test,,,,,,,,,,,,-1,-1,850,0,stim,poldrack-single-stim,152,259819,0.0-6.0-92.0,go_nogo_deval,466,,<img class = center src='/static/experiments/go_nogo_deval/images/red_circle.png'></img>,32,850,test,red_circle,nogo1,-1,30,0,,,,,,,-1,-1,1400,0,ITI,poldrack-single-stim,153,261220,0.0-6.0-93.0,go_nogo_deval,466,,<div></div>,32,1400,test,,,,,,,,,,,,-1,-1,500,0,fixation,poldrack-single-stim,154,261721,0.0-6.0-94.0,go_nogo_deval,466,,<div class = centerbox><div class = fixation>+</div></div>,none,500,test,,,,,,,,,,,,457,32,850,0,stim,poldrack-single-stim,155,262573,0.0-6.0-95.0,go_nogo_deval,466,,<img class = center src='/static/experiments/go_nogo_deval/images/blue_pentagon.png'></img>,32,850,test,blue_pentagon,go1,32,31,0,,,,,,,-1,-1,1400,0,ITI,poldrack-single-stim,156,263976,0.0-6.0-96.0,go_nogo_deval,466,,<div></div>,32,1400,test,,,,,,,,,,,,-1,-1,500,0,fixation,poldrack-single-stim,157,264477,0.0-6.0-97.0,go_nogo_deval,466,,<div class = centerbox><div class = fixation>+</div></div>,none,500,test,,,,,,,,,,,,446,32,850,0,stim,poldrack-single-stim,158,265329,0.0-6.0-98.0,go_nogo_deval,466,,<img class = center src='/static/experiments/go_nogo_deval/images/blue_pentagon.png'></img>,32,850,test,blue_pentagon,go1,32,32,0,,,,,,,-1,-1,1400,0,ITI,poldrack-single-stim,159,266731,0.0-6.0-99.0,go_nogo_deval,466,,<div></div>,32,1400,test,,,,,,,,,,,,-1,-1,500,0,fixation,poldrack-single-stim,160,267232,0.0-6.0-100.0,go_nogo_deval,466,,<div class = centerbox><div class = fixation>+</div></div>,none,500,test,,,,,,,,,,,,436,32,850,0,stim,poldrack-single-stim,161,268084,0.0-6.0-101.0,go_nogo_deval,466,,<img class = center src='/static/experiments/go_nogo_deval/images/blue_pentagon.png'></img>,32,850,test,blue_pentagon,go1,32,33,0,,,,,,,-1,-1,1400,0,ITI,poldrack-single-stim,162,269485,0.0-6.0-102.0,go_nogo_deval,466,,<div></div>,32,1400,test,,,,,,,,,,,,-1,-1,500,0,fixation,poldrack-single-stim,163,269987,0.0-6.0-103.0,go_nogo_deval,466,,<div class = centerbox><div class = fixation>+</div></div>,none,500,test,,,,,,,,,,,,381,32,850,0,stim,poldrack-single-stim,164,270838,0.0-6.0-104.0,go_nogo_deval,466,,<img class = center src='/static/experiments/go_nogo_deval/images/blue_pentagon.png'></img>,32,850,test,blue_pentagon,go1,32,34,0,,,,,,,-1,-1,1400,0,ITI,poldrack-single-stim,165,272239,0.0-6.0-105.0,go_nogo_deval,466,,<div></div>,32,1400,test,,,,,,,,,,,,-1,-1,500,0,fixation,poldrack-single-stim,166,272740,0.0-6.0-106.0,go_nogo_deval,466,,<div class = centerbox><div class = fixation>+</div></div>,none,500,test,,,,,,,,,,,,498,32,850,0,stim,poldrack-single-stim,167,273591,0.0-6.0-107.0,go_nogo_deval,466,,<img class = center src='/static/experiments/go_nogo_deval/images/purple_triangle.png'></img>,32,850,test,purple_triangle,go2,32,35,0,,,,,,,-1,-1,1400,0,ITI,poldrack-single-stim,168,274991,0.0-6.0-108.0,go_nogo_deval,466,,<div></div>,32,1400,test,,,,,,,,,,,,-1,-1,500,0,fixation,poldrack-single-stim,169,275492,0.0-6.0-109.0,go_nogo_deval,466,,<div class = centerbox><div class = fixation>+</div></div>,none,500,test,,,,,,,,,,,,502,32,850,0,stim,poldrack-single-stim,170,276343,0.0-6.0-110.0,go_nogo_deval,466,,<img class = center src='/static/experiments/go_nogo_deval/images/blue_pentagon.png'></img>,32,850,test,blue_pentagon,go1,32,36,0,,,,,,,-1,-1,1400,0,ITI,poldrack-single-stim,171,277745,0.0-6.0-111.0,go_nogo_deval,466,,<div></div>,32,1400,test,,,,,,,,,,,,-1,-1,500,0,fixation,poldrack-single-stim,172,278247,0.0-6.0-112.0,go_nogo_deval,466,,<div class = centerbox><div class = fixation>+</div></div>,none,500,test,,,,,,,,,,,,458,32,850,0,stim,poldrack-single-stim,173,279098,0.0-6.0-113.0,go_nogo_deval,466,,<img class = center src='/static/experiments/go_nogo_deval/images/blue_pentagon.png'></img>,32,850,test,blue_pentagon,go1,32,37,0,,,,,,,-1,-1,1400,0,ITI,poldrack-single-stim,174,280499,0.0-6.0-114.0,go_nogo_deval,466,,<div></div>,32,1400,test,,,,,,,,,,,,-1,-1,500,0,fixation,poldrack-single-stim,175,281001,0.0-6.0-115.0,go_nogo_deval,466,,<div class = centerbox><div class = fixation>+</div></div>,none,500,test,,,,,,,,,,,,426,32,850,0,stim,poldrack-single-stim,176,281853,0.0-6.0-116.0,go_nogo_deval,466,,<img class = center src='/static/experiments/go_nogo_deval/images/blue_pentagon.png'></img>,32,850,test,blue_pentagon,go1,32,38,0,,,,,,,-1,-1,1400,0,ITI,poldrack-single-stim,177,283254,0.0-6.0-117.0,go_nogo_deval,466,,<div></div>,32,1400,test,,,,,,,,,,,,-1,-1,500,0,fixation,poldrack-single-stim,178,283755,0.0-6.0-118.0,go_nogo_deval,466,,<div class = centerbox><div class = fixation>+</div></div>,none,500,test,,,,,,,,,,,,540,32,850,0,stim,poldrack-single-stim,179,284607,0.0-6.0-119.0,go_nogo_deval,466,,<img class = center src='/static/experiments/go_nogo_deval/images/purple_triangle.png'></img>,32,850,test,purple_triangle,go2,32,39,0,,,,,,,-1,-1,1400,0,ITI,poldrack-single-stim,180,286008,0.0-6.0-120.0,go_nogo_deval,466,,<div></div>,32,1400,test,,,,,,,,,,,,-1,-1,500,0,fixation,poldrack-single-stim,181,286509,0.0-6.0-121.0,go_nogo_deval,466,,<div class = centerbox><div class = fixation>+</div></div>,none,500,test,,,,,,,,,,,,409,32,850,0,stim,poldrack-single-stim,182,287360,0.0-6.0-122.0,go_nogo_deval,466,,<img class = center src='/static/experiments/go_nogo_deval/images/blue_pentagon.png'></img>,32,850,test,blue_pentagon,go1,32,40,0,,,,,,,-1,-1,1400,0,ITI,poldrack-single-stim,183,288761,0.0-6.0-123.0,go_nogo_deval,466,,<div></div>,32,1400,test,,,,,,,,,,,,-1,-1,500,0,fixation,poldrack-single-stim,184,289262,0.0-6.0-124.0,go_nogo_deval,466,,<div class = centerbox><div class = fixation>+</div></div>,none,500,test,,,,,,,,,,,,-1,-1,850,0,stim,poldrack-single-stim,185,290114,0.0-6.0-125.0,go_nogo_deval,466,,<img class = center src='/static/experiments/go_nogo_deval/images/red_circle.png'></img>,32,850,test,red_circle,nogo1,-1,41,0,,,,,,,-1,-1,1400,0,ITI,poldrack-single-stim,186,291514,0.0-6.0-126.0,go_nogo_deval,466,,<div></div>,32,1400,test,,,,,,,,,,,,-1,-1,500,0,fixation,poldrack-single-stim,187,292016,0.0-6.0-127.0,go_nogo_deval,466,,<div class = centerbox><div class = fixation>+</div></div>,none,500,test,,,,,,,,,,,,549,32,850,0,stim,poldrack-single-stim,188,292868,0.0-6.0-128.0,go_nogo_deval,466,,<img class = center src='/static/experiments/go_nogo_deval/images/blue_pentagon.png'></img>,32,850,test,blue_pentagon,go1,32,42,0,,,,,,,-1,-1,1400,0,ITI,poldrack-single-stim,189,294270,0.0-6.0-129.0,go_nogo_deval,466,,<div></div>,32,1400,test,,,,,,,,,,,,-1,-1,500,0,fixation,poldrack-single-stim,190,294771,0.0-6.0-130.0,go_nogo_deval,466,,<div class = centerbox><div class = fixation>+</div></div>,none,500,test,,,,,,,,,,,,461,32,850,0,stim,poldrack-single-stim,191,295623,0.0-6.0-131.0,go_nogo_deval,466,,<img class = center src='/static/experiments/go_nogo_deval/images/blue_pentagon.png'></img>,32,850,test,blue_pentagon,go1,32,43,0,,,,,,,-1,-1,1400,0,ITI,poldrack-single-stim,192,297024,0.0-6.0-132.0,go_nogo_deval,466,,<div></div>,32,1400,test,,,,,,,,,,,,-1,-1,500,0,fixation,poldrack-single-stim,193,297526,0.0-6.0-133.0,go_nogo_deval,466,,<div class = centerbox><div class = fixation>+</div></div>,none,500,test,,,,,,,,,,,,428,32,850,0,stim,poldrack-single-stim,194,298378,0.0-6.0-134.0,go_nogo_deval,466,,<img class = center src='/static/experiments/go_nogo_deval/images/purple_triangle.png'></img>,32,850,test,purple_triangle,go2,32,44,0,,,,,,,-1,-1,1400,0,ITI,poldrack-single-stim,195,299779,0.0-6.0-135.0,go_nogo_deval,466,,<div></div>,32,1400,test,,,,,,,,,,,,-1,-1,500,0,fixation,poldrack-single-stim,196,300279,0.0-6.0-136.0,go_nogo_deval,466,,<div class = centerbox><div class = fixation>+</div></div>,none,500,test,,,,,,,,,,,,397,32,850,0,stim,poldrack-single-stim,197,301131,0.0-6.0-137.0,go_nogo_deval,466,,<img class = center src='/static/experiments/go_nogo_deval/images/purple_triangle.png'></img>,32,850,test,purple_triangle,go2,32,45,0,,,,,,,-1,-1,1400,0,ITI,poldrack-single-stim,198,302532,0.0-6.0-138.0,go_nogo_deval,466,,<div></div>,32,1400,test,,,,,,,,,,,,-1,-1,500,0,fixation,poldrack-single-stim,199,303034,0.0-6.0-139.0,go_nogo_deval,466,,<div class = centerbox><div class = fixation>+</div></div>,none,500,test,,,,,,,,,,,,-1,-1,850,0,stim,poldrack-single-stim,200,303885,0.0-6.0-140.0,go_nogo_deval,466,,<img class = center src='/static/experiments/go_nogo_deval/images/red_circle.png'></img>,32,850,test,red_circle,nogo1,-1,46,0,,,,,,,-1,-1,1400,0,ITI,poldrack-single-stim,201,305286,0.0-6.0-141.0,go_nogo_deval,466,,<div></div>,32,1400,test,,,,,,,,,,,,-1,-1,500,0,fixation,poldrack-single-stim,202,305787,0.0-6.0-142.0,go_nogo_deval,466,,<div class = centerbox><div class = fixation>+</div></div>,none,500,test,,,,,,,,,,,,368,32,850,0,stim,poldrack-single-stim,203,306638,0.0-6.0-143.0,go_nogo_deval,466,,<img class = center src='/static/experiments/go_nogo_deval/images/purple_triangle.png'></img>,32,850,test,purple_triangle,go2,32,47,0,,,,,,,-1,-1,1400,0,ITI,poldrack-single-stim,204,308039,0.0-6.0-144.0,go_nogo_deval,466,,<div></div>,32,1400,test,,,,,,,,,,,,6923,13,6923,0,practice-no-stop-feedback,poldrack-single-stim,205,314965,0.0-6.1-0.1,go_nogo_deval,466,,<div class = centerbox><p class = block-text><br>Please take this time to read your feedback and to take a short break! Press enter to continue</p><p class = block-text><strong>Average reaction time:  453 ms. Accuracy: 98%</strong></p></div>,13,6923,,,,,,,,,,,,,-1,-1,500,0,fixation,poldrack-single-stim,206,315467,0.0-6.1-1.1,go_nogo_deval,466,,<div class = centerbox><div class = fixation>+</div></div>,none,500,test,,,,,,,,,,,,-1,-1,850,0,stim,poldrack-single-stim,207,316318,0.0-6.1-2.1,go_nogo_deval,466,,<img class = center src='/static/experiments/go_nogo_deval/images/green_rhombus.png'></img>,32,850,test,green_rhombus,nogo2,-1,0,1,,,,,,,-1,-1,1400,0,ITI,poldrack-single-stim,208,317719,0.0-6.1-3.1,go_nogo_deval,466,,<div></div>,32,1400,test,,,,,,,,,,,,-1,-1,500,0,fixation,poldrack-single-stim,209,318221,0.0-6.1-4.1,go_nogo_deval,466,,<div class = centerbox><div class = fixation>+</div></div>,none,500,test,,,,,,,,,,,,400,32,850,0,stim,poldrack-single-stim,210,319072,0.0-6.1-5.1,go_nogo_deval,466,,<img class = center src='/static/experiments/go_nogo_deval/images/purple_triangle.png'></img>,32,850,test,purple_triangle,go2,32,1,1,,,,,,,-1,-1,1400,0,ITI,poldrack-single-stim,211,320474,0.0-6.1-6.1,go_nogo_deval,466,,<div></div>,32,1400,test,,,,,,,,,,,,-1,-1,500,0,fixation,poldrack-single-stim,212,320975,0.0-6.1-7.1,go_nogo_deval,466,,<div class = centerbox><div class = fixation>+</div></div>,none,500,test,,,,,,,,,,,,-1,-1,850,0,stim,poldrack-single-stim,213,321827,0.0-6.1-8.1,go_nogo_deval,466,,<img class = center src='/static/experiments/go_nogo_deval/images/red_circle.png'></img>,32,850,test,red_circle,nogo1,-1,2,1,,,,,,,-1,-1,1400,0,ITI,poldrack-single-stim,214,323229,0.0-6.1-9.1,go_nogo_deval,466,,<div></div>,32,1400,test,,,,,,,,,,,,-1,-1,500,0,fixation,poldrack-single-stim,215,323730,0.0-6.1-10.1,go_nogo_deval,466,,<div class = centerbox><div class = fixation>+</div></div>,none,500,test,,,,,,,,,,,,-1,-1,850,0,stim,poldrack-single-stim,216,324582,0.0-6.1-11.1,go_nogo_deval,466,,<img class = center src='/static/experiments/go_nogo_deval/images/green_rhombus.png'></img>,32,850,test,green_rhombus,nogo2,-1,3,1,,,,,,,-1,-1,1400,0,ITI,poldrack-single-stim,217,325983,0.0-6.1-12.1,go_nogo_deval,466,,<div></div>,32,1400,test,,,,,,,,,,,,-1,-1,500,0,fixation,poldrack-single-stim,218,326485,0.0-6.1-13.1,go_nogo_deval,466,,<div class = centerbox><div class = fixation>+</div></div>,none,500,test,,,,,,,,,,,,382,32,850,0,stim,poldrack-single-stim,219,327336,0.0-6.1-14.1,go_nogo_deval,466,,<img class = center src='/static/experiments/go_nogo_deval/images/purple_triangle.png'></img>,32,850,test,purple_triangle,go2,32,4,1,,,,,,,-1,-1,1400,0,ITI,poldrack-single-stim,220,328737,0.0-6.1-15.1,go_nogo_deval,466,,<div></div>,32,1400,test,,,,,,,,,,,,-1,-1,500,0,fixation,poldrack-single-stim,221,329239,0.0-6.1-16.1,go_nogo_deval,466,,<div class = centerbox><div class = fixation>+</div></div>,none,500,test,,,,,,,,,,,,338,32,850,0,stim,poldrack-single-stim,222,330091,0.0-6.1-17.1,go_nogo_deval,466,,<img class = center src='/static/experiments/go_nogo_deval/images/blue_pentagon.png'></img>,32,850,test,blue_pentagon,go1,32,5,1,,,,,,,-1,-1,1400,0,ITI,poldrack-single-stim,223,331493,0.0-6.1-18.1,go_nogo_deval,466,,<div></div>,32,1400,test,,,,,,,,,,,,-1,-1,500,0,fixation,poldrack-single-stim,224,331995,0.0-6.1-19.1,go_nogo_deval,466,,<div class = centerbox><div class = fixation>+</div></div>,none,500,test,,,,,,,,,,,,429,32,850,0,stim,poldrack-single-stim,225,332847,0.0-6.1-20.1,go_nogo_deval,466,,<img class = center src='/static/experiments/go_nogo_deval/images/blue_pentagon.png'></img>,32,850,test,blue_pentagon,go1,32,6,1,,,,,,,-1,-1,1400,0,ITI,poldrack-single-stim,226,334248,0.0-6.1-21.1,go_nogo_deval,466,,<div></div>,32,1400,test,,,,,,,,,,,,-1,-1,500,0,fixation,poldrack-single-stim,227,334750,0.0-6.1-22.1,go_nogo_deval,466,,<div class = centerbox><div class = fixation>+</div></div>,none,500,test,,,,,,,,,,,,385,32,850,0,stim,poldrack-single-stim,228,335602,0.0-6.1-23.1,go_nogo_deval,466,,<img class = center src='/static/experiments/go_nogo_deval/images/blue_pentagon.png'></img>,32,850,test,blue_pentagon,go1,32,7,1,,,,,,,-1,-1,1400,0,ITI,poldrack-single-stim,229,337003,0.0-6.1-24.1,go_nogo_deval,466,,<div></div>,32,1400,test,,,,,,,,,,,,-1,-1,500,0,fixation,poldrack-single-stim,230,337505,0.0-6.1-25.1,go_nogo_deval,466,,<div class = centerbox><div class = fixation>+</div></div>,none,500,test,,,,,,,,,,,,365,32,850,0,stim,poldrack-single-stim,231,338357,0.0-6.1-26.1,go_nogo_deval,466,,<img class = center src='/static/experiments/go_nogo_deval/images/purple_triangle.png'></img>,32,850,test,purple_triangle,go2,32,8,1,,,,,,,-1,-1,1400,0,ITI,poldrack-single-stim,232,339758,0.0-6.1-27.1,go_nogo_deval,466,,<div></div>,32,1400,test,,,,,,,,,,,,-1,-1,500,0,fixation,poldrack-single-stim,233,340259,0.0-6.1-28.1,go_nogo_deval,466,,<div class = centerbox><div class = fixation>+</div></div>,none,500,test,,,,,,,,,,,,366,32,850,0,stim,poldrack-single-stim,234,341110,0.0-6.1-29.1,go_nogo_deval,466,,<img class = center src='/static/experiments/go_nogo_deval/images/blue_pentagon.png'></img>,32,850,test,blue_pentagon,go1,32,9,1,,,,,,,-1,-1,1400,0,ITI,poldrack-single-stim,235,342512,0.0-6.1-30.1,go_nogo_deval,466,,<div></div>,32,1400,test,,,,,,,,,,,,-1,-1,500,0,fixation,poldrack-single-stim,236,343014,0.0-6.1-31.1,go_nogo_deval,466,,<div class = centerbox><div class = fixation>+</div></div>,none,500,test,,,,,,,,,,,,357,32,850,0,stim,poldrack-single-stim,237,343866,0.0-6.1-32.1,go_nogo_deval,466,,<img class = center src='/static/experiments/go_nogo_deval/images/blue_pentagon.png'></img>,32,850,test,blue_pentagon,go1,32,10,1,,,,,,,-1,-1,1400,0,ITI,poldrack-single-stim,238,345267,0.0-6.1-33.1,go_nogo_deval,466,,<div></div>,32,1400,test,,,,,,,,,,,,-1,-1,500,0,fixation,poldrack-single-stim,239,345768,0.0-6.1-34.1,go_nogo_deval,466,,<div class = centerbox><div class = fixation>+</div></div>,none,500,test,,,,,,,,,,,,347,32,850,0,stim,poldrack-single-stim,240,346620,0.0-6.1-35.1,go_nogo_deval,466,,<img class = center src='/static/experiments/go_nogo_deval/images/blue_pentagon.png'></img>,32,850,test,blue_pentagon,go1,32,11,1,,,,,,,-1,-1,1400,0,ITI,poldrack-single-stim,241,348022,0.0-6.1-36.1,go_nogo_deval,466,,<div></div>,32,1400,test,,,,,,,,,,,,-1,-1,500,0,fixation,poldrack-single-stim,242,348523,0.0-6.1-37.1,go_nogo_deval,466,,<div class = centerbox><div class = fixation>+</div></div>,none,500,test,,,,,,,,,,,,-1,-1,850,0,stim,poldrack-single-stim,243,349375,0.0-6.1-38.1,go_nogo_deval,466,,<img class = center src='/static/experiments/go_nogo_deval/images/red_circle.png'></img>,32,850,test,red_circle,nogo1,-1,12,1,,,,,,,-1,-1,1400,0,ITI,poldrack-single-stim,244,350777,0.0-6.1-39.1,go_nogo_deval,466,,<div></div>,32,1400,test,,,,,,,,,,,,-1,-1,500,0,fixation,poldrack-single-stim,245,351278,0.0-6.1-40.1,go_nogo_deval,466,,<div class = centerbox><div class = fixation>+</div></div>,none,500,test,,,,,,,,,,,,406,32,850,0,stim,poldrack-single-stim,246,352130,0.0-6.1-41.1,go_nogo_deval,466,,<img class = center src='/static/experiments/go_nogo_deval/images/purple_triangle.png'></img>,32,850,test,purple_triangle,go2,32,13,1,,,,,,,-1,-1,1400,0,ITI,poldrack-single-stim,247,353532,0.0-6.1-42.1,go_nogo_deval,466,,<div></div>,32,1400,test,,,,,,,,,,,,-1,-1,500,0,fixation,poldrack-single-stim,248,354034,0.0-6.1-43.1,go_nogo_deval,466,,<div class = centerbox><div class = fixation>+</div></div>,none,500,test,,,,,,,,,,,,519,32,850,0,stim,poldrack-single-stim,249,354885,0.0-6.1-44.1,go_nogo_deval,466,,<img class = center src='/static/experiments/go_nogo_deval/images/purple_triangle.png'></img>,32,850,test,purple_triangle,go2,32,14,1,,,,,,,-1,-1,1400,0,ITI,poldrack-single-stim,250,356287,0.0-6.1-45.1,go_nogo_deval,466,,<div></div>,32,1400,test,,,,,,,,,,,,-1,-1,500,0,fixation,poldrack-single-stim,251,356788,0.0-6.1-46.1,go_nogo_deval,466,,<div class = centerbox><div class = fixation>+</div></div>,none,500,test,,,,,,,,,,,,-1,-1,850,0,stim,poldrack-single-stim,252,357640,0.0-6.1-47.1,go_nogo_deval,466,,<img class = center src='/static/experiments/go_nogo_deval/images/red_circle.png'></img>,32,850,test,red_circle,nogo1,-1,15,1,,,,,,,-1,-1,1400,0,ITI,poldrack-single-stim,253,359041,0.0-6.1-48.1,go_nogo_deval,466,,<div></div>,32,1400,test,,,,,,,,,,,,-1,-1,500,0,fixation,poldrack-single-stim,254,359543,0.0-6.1-49.1,go_nogo_deval,466,,<div class = centerbox><div class = fixation>+</div></div>,none,500,test,,,,,,,,,,,,388,32,850,0,stim,poldrack-single-stim,255,360395,0.0-6.1-50.1,go_nogo_deval,466,,<img class = center src='/static/experiments/go_nogo_deval/images/blue_pentagon.png'></img>,32,850,test,blue_pentagon,go1,32,16,1,,,,,,,-1,-1,1400,0,ITI,poldrack-single-stim,256,361797,0.0-6.1-51.1,go_nogo_deval,466,,<div></div>,32,1400,test,,,,,,,,,,,,-1,-1,500,0,fixation,poldrack-single-stim,257,362297,0.0-6.1-52.1,go_nogo_deval,466,,<div class = centerbox><div class = fixation>+</div></div>,none,500,test,,,,,,,,,,,,412,32,850,0,stim,poldrack-single-stim,258,363149,0.0-6.1-53.1,go_nogo_deval,466,,<img class = center src='/static/experiments/go_nogo_deval/images/purple_triangle.png'></img>,32,850,test,purple_triangle,go2,32,17,1,,,,,,,-1,-1,1400,0,ITI,poldrack-single-stim,259,364551,0.0-6.1-54.1,go_nogo_deval,466,,<div></div>,32,1400,test,,,,,,,,,,,,-1,-1,500,0,fixation,poldrack-single-stim,260,365053,0.0-6.1-55.1,go_nogo_deval,466,,<div class = centerbox><div class = fixation>+</div></div>,none,500,test,,,,,,,,,,,,-1,-1,850,0,stim,poldrack-single-stim,261,365905,0.0-6.1-56.1,go_nogo_deval,466,,<img class = center src='/static/experiments/go_nogo_deval/images/green_rhombus.png'></img>,32,850,test,green_rhombus,nogo2,-1,18,1,,,,,,,-1,-1,1400,0,ITI,poldrack-single-stim,262,367307,0.0-6.1-57.1,go_nogo_deval,466,,<div></div>,32,1400,test,,,,,,,,,,,,-1,-1,500,0,fixation,poldrack-single-stim,263,367808,0.0-6.1-58.1,go_nogo_deval,466,,<div class = centerbox><div class = fixation>+</div></div>,none,500,test,,,,,,,,,,,,425,32,850,0,stim,poldrack-single-stim,264,368659,0.0-6.1-59.1,go_nogo_deval,466,,<img class = center src='/static/experiments/go_nogo_deval/images/purple_triangle.png'></img>,32,850,test,purple_triangle,go2,32,19,1,,,,,,,-1,-1,1400,0,ITI,poldrack-single-stim,265,370061,0.0-6.1-60.1,go_nogo_deval,466,,<div></div>,32,1400,test,,,,,,,,,,,,-1,-1,500,0,fixation,poldrack-single-stim,266,370563,0.0-6.1-61.1,go_nogo_deval,466,,<div class = centerbox><div class = fixation>+</div></div>,none,500,test,,,,,,,,,,,,404,32,850,0,stim,poldrack-single-stim,267,371415,0.0-6.1-62.1,go_nogo_deval,466,,<img class = center src='/static/experiments/go_nogo_deval/images/purple_triangle.png'></img>,32,850,test,purple_triangle,go2,32,20,1,,,,,,,-1,-1,1400,0,ITI,poldrack-single-stim,268,372816,0.0-6.1-63.1,go_nogo_deval,466,,<div></div>,32,1400,test,,,,,,,,,,,,-1,-1,500,0,fixation,poldrack-single-stim,269,373317,0.0-6.1-64.1,go_nogo_deval,466,,<div class = centerbox><div class = fixation>+</div></div>,none,500,test,,,,,,,,,,,,530,32,850,0,stim,poldrack-single-stim,270,374168,0.0-6.1-65.1,go_nogo_deval,466,,<img class = center src='/static/experiments/go_nogo_deval/images/green_rhombus.png'></img>,32,850,test,green_rhombus,nogo2,-1,21,1,,,,,,,-1,-1,1400,0,ITI,poldrack-single-stim,271,375570,0.0-6.1-66.1,go_nogo_deval,466,,<div></div>,32,1400,test,,,,,,,,,,,,-1,-1,500,0,fixation,poldrack-single-stim,272,376072,0.0-6.1-67.1,go_nogo_deval,466,,<div class = centerbox><div class = fixation>+</div></div>,none,500,test,,,,,,,,,,,,385,32,850,0,stim,poldrack-single-stim,273,376924,0.0-6.1-68.1,go_nogo_deval,466,,<img class = center src='/static/experiments/go_nogo_deval/images/blue_pentagon.png'></img>,32,850,test,blue_pentagon,go1,32,22,1,,,,,,,-1,-1,1400,0,ITI,poldrack-single-stim,274,378324,0.0-6.1-69.1,go_nogo_deval,466,,<div></div>,32,1400,test,,,,,,,,,,,,-1,-1,500,0,fixation,poldrack-single-stim,275,378826,0.0-6.1-70.1,go_nogo_deval,466,,<div class = centerbox><div class = fixation>+</div></div>,none,500,test,,,,,,,,,,,,409,32,850,0,stim,poldrack-single-stim,276,379678,0.0-6.1-71.1,go_nogo_deval,466,,<img class = center src='/static/experiments/go_nogo_deval/images/blue_pentagon.png'></img>,32,850,test,blue_pentagon,go1,32,23,1,,,,,,,-1,-1,1400,0,ITI,poldrack-single-stim,277,381080,0.0-6.1-72.1,go_nogo_deval,466,,<div></div>,32,1400,test,,,,,,,,,,,,-1,-1,500,0,fixation,poldrack-single-stim,278,381581,0.0-6.1-73.1,go_nogo_deval,466,,<div class = centerbox><div class = fixation>+</div></div>,none,500,test,,,,,,,,,,,,423,32,850,0,stim,poldrack-single-stim,279,382433,0.0-6.1-74.1,go_nogo_deval,466,,<img class = center src='/static/experiments/go_nogo_deval/images/purple_triangle.png'></img>,32,850,test,purple_triangle,go2,32,24,1,,,,,,,-1,-1,1400,0,ITI,poldrack-single-stim,280,383835,0.0-6.1-75.1,go_nogo_deval,466,,<div></div>,32,1400,test,,,,,,,,,,,,-1,-1,500,0,fixation,poldrack-single-stim,281,384337,0.0-6.1-76.1,go_nogo_deval,466,,<div class = centerbox><div class = fixation>+</div></div>,none,500,test,,,,,,,,,,,,390,32,850,0,stim,poldrack-single-stim,282,385188,0.0-6.1-77.1,go_nogo_deval,466,,<img class = center src='/static/experiments/go_nogo_deval/images/purple_triangle.png'></img>,32,850,test,purple_triangle,go2,32,25,1,,,,,,,-1,-1,1400,0,ITI,poldrack-single-stim,283,386590,0.0-6.1-78.1,go_nogo_deval,466,,<div></div>,32,1400,test,,,,,,,,,,,,-1,-1,500,0,fixation,poldrack-single-stim,284,387092,0.0-6.1-79.1,go_nogo_deval,466,,<div class = centerbox><div class = fixation>+</div></div>,none,500,test,,,,,,,,,,,,-1,-1,850,0,stim,poldrack-single-stim,285,387943,0.0-6.1-80.1,go_nogo_deval,466,,<img class = center src='/static/experiments/go_nogo_deval/images/red_circle.png'></img>,32,850,test,red_circle,nogo1,-1,26,1,,,,,,,-1,-1,1400,0,ITI,poldrack-single-stim,286,389344,0.0-6.1-81.1,go_nogo_deval,466,,<div></div>,32,1400,test,,,,,,,,,,,,-1,-1,500,0,fixation,poldrack-single-stim,287,389846,0.0-6.1-82.1,go_nogo_deval,466,,<div class = centerbox><div class = fixation>+</div></div>,none,500,test,,,,,,,,,,,,381,32,850,0,stim,poldrack-single-stim,288,390698,0.0-6.1-83.1,go_nogo_deval,466,,<img class = center src='/static/experiments/go_nogo_deval/images/purple_triangle.png'></img>,32,850,test,purple_triangle,go2,32,27,1,,,,,,,-1,-1,1400,0,ITI,poldrack-single-stim,289,392099,0.0-6.1-84.1,go_nogo_deval,466,,<div></div>,32,1400,test,,,,,,,,,,,,-1,-1,500,0,fixation,poldrack-single-stim,290,392601,0.0-6.1-85.1,go_nogo_deval,466,,<div class = centerbox><div class = fixation>+</div></div>,none,500,test,,,,,,,,,,,,416,32,850,0,stim,poldrack-single-stim,291,393452,0.0-6.1-86.1,go_nogo_deval,466,,<img class = center src='/static/experiments/go_nogo_deval/images/blue_pentagon.png'></img>,32,850,test,blue_pentagon,go1,32,28,1,,,,,,,-1,-1,1400,0,ITI,poldrack-single-stim,292,394853,0.0-6.1-87.1,go_nogo_deval,466,,<div></div>,32,1400,test,,,,,,,,,,,,-1,-1,500,0,fixation,poldrack-single-stim,293,395355,0.0-6.1-88.1,go_nogo_deval,466,,<div class = centerbox><div class = fixation>+</div></div>,none,500,test,,,,,,,,,,,,508,32,850,0,stim,poldrack-single-stim,294,396207,0.0-6.1-89.1,go_nogo_deval,466,,<img class = center src='/static/experiments/go_nogo_deval/images/blue_pentagon.png'></img>,32,850,test,blue_pentagon,go1,32,29,1,,,,,,,-1,-1,1400,0,ITI,poldrack-single-stim,295,397609,0.0-6.1-90.1,go_nogo_deval,466,,<div></div>,32,1400,test,,,,,,,,,,,,-1,-1,500,0,fixation,poldrack-single-stim,296,398111,0.0-6.1-91.1,go_nogo_deval,466,,<div class = centerbox><div class = fixation>+</div></div>,none,500,test,,,,,,,,,,,,-1,-1,850,0,stim,poldrack-single-stim,297,398963,0.0-6.1-92.1,go_nogo_deval,466,,<img class = center src='/static/experiments/go_nogo_deval/images/red_circle.png'></img>,32,850,test,red_circle,nogo1,-1,30,1,,,,,,,-1,-1,1400,0,ITI,poldrack-single-stim,298,400364,0.0-6.1-93.1,go_nogo_deval,466,,<div></div>,32,1400,test,,,,,,,,,,,,-1,-1,500,0,fixation,poldrack-single-stim,299,400866,0.0-6.1-94.1,go_nogo_deval,466,,<div class = centerbox><div class = fixation>+</div></div>,none,500,test,,,,,,,,,,,,477,32,850,0,stim,poldrack-single-stim,300,401717,0.0-6.1-95.1,go_nogo_deval,466,,<img class = center src='/static/experiments/go_nogo_deval/images/blue_pentagon.png'></img>,32,850,test,blue_pentagon,go1,32,31,1,,,,,,,-1,-1,1400,0,ITI,poldrack-single-stim,301,403119,0.0-6.1-96.1,go_nogo_deval,466,,<div></div>,32,1400,test,,,,,,,,,,,,-1,-1,500,0,fixation,poldrack-single-stim,302,403621,0.0-6.1-97.1,go_nogo_deval,466,,<div class = centerbox><div class = fixation>+</div></div>,none,500,test,,,,,,,,,,,,433,32,850,0,stim,poldrack-single-stim,303,404473,0.0-6.1-98.1,go_nogo_deval,466,,<img class = center src='/static/experiments/go_nogo_deval/images/blue_pentagon.png'></img>,32,850,test,blue_pentagon,go1,32,32,1,,,,,,,-1,-1,1400,0,ITI,poldrack-single-stim,304,405874,0.0-6.1-99.1,go_nogo_deval,466,,<div></div>,32,1400,test,,,,,,,,,,,,-1,-1,500,0,fixation,poldrack-single-stim,305,406375,0.0-6.1-100.1,go_nogo_deval,466,,<div class = centerbox><div class = fixation>+</div></div>,none,500,test,,,,,,,,,,,,-1,-1,850,0,stim,poldrack-single-stim,306,407227,0.0-6.1-101.1,go_nogo_deval,466,,<img class = center src='/static/experiments/go_nogo_deval/images/green_rhombus.png'></img>,32,850,test,green_rhombus,nogo2,-1,33,1,,,,,,,-1,-1,1400,0,ITI,poldrack-single-stim,307,408629,0.0-6.1-102.1,go_nogo_deval,466,,<div></div>,32,1400,test,,,,,,,,,,,,-1,-1,500,0,fixation,poldrack-single-stim,308,409130,0.0-6.1-103.1,go_nogo_deval,466,,<div class = centerbox><div class = fixation>+</div></div>,none,500,test,,,,,,,,,,,,504,32,850,0,stim,poldrack-single-stim,309,409982,0.0-6.1-104.1,go_nogo_deval,466,,<img class = center src='/static/experiments/go_nogo_deval/images/blue_pentagon.png'></img>,32,850,test,blue_pentagon,go1,32,34,1,,,,,,,-1,-1,1400,0,ITI,poldrack-single-stim,310,411383,0.0-6.1-105.1,go_nogo_deval,466,,<div></div>,32,1400,test,,,,,,,,,,,,-1,-1,500,0,fixation,poldrack-single-stim,311,411884,0.0-6.1-106.1,go_nogo_deval,466,,<div class = centerbox><div class = fixation>+</div></div>,none,500,test,,,,,,,,,,,,-1,-1,850,0,stim,poldrack-single-stim,312,412735,0.0-6.1-107.1,go_nogo_deval,466,,<img class = center src='/static/experiments/go_nogo_deval/images/red_circle.png'></img>,32,850,test,red_circle,nogo1,-1,35,1,,,,,,,-1,-1,1400,0,ITI,poldrack-single-stim,313,414137,0.0-6.1-108.1,go_nogo_deval,466,,<div></div>,32,1400,test,,,,,,,,,,,,-1,-1,500,0,fixation,poldrack-single-stim,314,414639,0.0-6.1-109.1,go_nogo_deval,466,,<div class = centerbox><div class = fixation>+</div></div>,none,500,test,,,,,,,,,,,,462,32,850,0,stim,poldrack-single-stim,315,415491,0.0-6.1-110.1,go_nogo_deval,466,,<img class = center src='/static/experiments/go_nogo_deval/images/blue_pentagon.png'></img>,32,850,test,blue_pentagon,go1,32,36,1,,,,,,,-1,-1,1400,0,ITI,poldrack-single-stim,316,416892,0.0-6.1-111.1,go_nogo_deval,466,,<div></div>,32,1400,test,,,,,,,,,,,,-1,-1,500,0,fixation,poldrack-single-stim,317,417393,0.0-6.1-112.1,go_nogo_deval,466,,<div class = centerbox><div class = fixation>+</div></div>,none,500,test,,,,,,,,,,,,498,32,850,0,stim,poldrack-single-stim,318,418245,0.0-6.1-113.1,go_nogo_deval,466,,<img class = center src='/static/experiments/go_nogo_deval/images/purple_triangle.png'></img>,32,850,test,purple_triangle,go2,32,37,1,,,,,,,-1,-1,1400,0,ITI,poldrack-single-stim,319,419646,0.0-6.1-114.1,go_nogo_deval,466,,<div></div>,32,1400,test,,,,,,,,,,,,-1,-1,500,0,fixation,poldrack-single-stim,320,420147,0.0-6.1-115.1,go_nogo_deval,466,,<div class = centerbox><div class = fixation>+</div></div>,none,500,test,,,,,,,,,,,,410,32,850,0,stim,poldrack-single-stim,321,420999,0.0-6.1-116.1,go_nogo_deval,466,,<img class = center src='/static/experiments/go_nogo_deval/images/blue_pentagon.png'></img>,32,850,test,blue_pentagon,go1,32,38,1,,,,,,,-1,-1,1400,0,ITI,poldrack-single-stim,322,422401,0.0-6.1-117.1,go_nogo_deval,466,,<div></div>,32,1400,test,,,,,,,,,,,,-1,-1,500,0,fixation,poldrack-single-stim,323,422903,0.0-6.1-118.1,go_nogo_deval,466,,<div class = centerbox><div class = fixation>+</div></div>,none,500,test,,,,,,,,,,,,-1,-1,850,0,stim,poldrack-single-stim,324,423755,0.0-6.1-119.1,go_nogo_deval,466,,<img class = center src='/static/experiments/go_nogo_deval/images/green_rhombus.png'></img>,32,850,test,green_rhombus,nogo2,-1,39,1,,,,,,,-1,-1,1400,0,ITI,poldrack-single-stim,325,425157,0.0-6.1-120.1,go_nogo_deval,466,,<div></div>,32,1400,test,,,,,,,,,,,,-1,-1,500,0,fixation,poldrack-single-stim,326,425659,0.0-6.1-121.1,go_nogo_deval,466,,<div class = centerbox><div class = fixation>+</div></div>,none,500,test,,,,,,,,,,,,445,32,850,0,stim,poldrack-single-stim,327,426511,0.0-6.1-122.1,go_nogo_deval,466,,<img class = center src='/static/experiments/go_nogo_deval/images/purple_triangle.png'></img>,32,850,test,purple_triangle,go2,32,40,1,,,,,,,-1,-1,1400,0,ITI,poldrack-single-stim,328,427913,0.0-6.1-123.1,go_nogo_deval,466,,<div></div>,32,1400,test,,,,,,,,,,,,-1,-1,500,0,fixation,poldrack-single-stim,329,428413,0.0-6.1-124.1,go_nogo_deval,466,,<div class = centerbox><div class = fixation>+</div></div>,none,500,test,,,,,,,,,,,,469,32,850,0,stim,poldrack-single-stim,330,429265,0.0-6.1-125.1,go_nogo_deval,466,,<img class = center src='/static/experiments/go_nogo_deval/images/purple_triangle.png'></img>,32,850,test,purple_triangle,go2,32,41,1,,,,,,,-1,-1,1400,0,ITI,poldrack-single-stim,331,430667,0.0-6.1-126.1,go_nogo_deval,466,,<div></div>,32,1400,test,,,,,,,,,,,,-1,-1,500,0,fixation,poldrack-single-stim,332,431169,0.0-6.1-127.1,go_nogo_deval,466,,<div class = centerbox><div class = fixation>+</div></div>,none,500,test,,,,,,,,,,,,-1,-1,850,0,stim,poldrack-single-stim,333,432021,0.0-6.1-128.1,go_nogo_deval,466,,<img class = center src='/static/experiments/go_nogo_deval/images/green_rhombus.png'></img>,32,850,test,green_rhombus,nogo2,-1,42,1,,,,,,,-1,-1,1400,0,ITI,poldrack-single-stim,334,433423,0.0-6.1-129.1,go_nogo_deval,466,,<div></div>,32,1400,test,,,,,,,,,,,,-1,-1,500,0,fixation,poldrack-single-stim,335,433925,0.0-6.1-130.1,go_nogo_deval,466,,<div class = centerbox><div class = fixation>+</div></div>,none,500,test,,,,,,,,,,,,460,32,850,0,stim,poldrack-single-stim,336,434775,0.0-6.1-131.1,go_nogo_deval,466,,<img class = center src='/static/experiments/go_nogo_deval/images/purple_triangle.png'></img>,32,850,test,purple_triangle,go2,32,43,1,,,,,,,-1,-1,1400,0,ITI,poldrack-single-stim,337,436177,0.0-6.1-132.1,go_nogo_deval,466,,<div></div>,32,1400,test,,,,,,,,,,,,-1,-1,500,0,fixation,poldrack-single-stim,338,436679,0.0-6.1-133.1,go_nogo_deval,466,,<div class = centerbox><div class = fixation>+</div></div>,none,500,test,,,,,,,,,,,,-1,-1,850,0,stim,poldrack-single-stim,339,437530,0.0-6.1-134.1,go_nogo_deval,466,,<img class = center src='/static/experiments/go_nogo_deval/images/red_circle.png'></img>,32,850,test,red_circle,nogo1,-1,44,1,,,,,,,-1,-1,1400,0,ITI,poldrack-single-stim,340,438932,0.0-6.1-135.1,go_nogo_deval,466,,<div></div>,32,1400,test,,,,,,,,,,,,-1,-1,500,0,fixation,poldrack-single-stim,341,439433,0.0-6.1-136.1,go_nogo_deval,466,,<div class = centerbox><div class = fixation>+</div></div>,none,500,test,,,,,,,,,,,,-1,-1,850,0,stim,poldrack-single-stim,342,440285,0.0-6.1-137.1,go_nogo_deval,466,,<img class = center src='/static/experiments/go_nogo_deval/images/red_circle.png'></img>,32,850,test,red_circle,nogo1,-1,45,1,,,,,,,-1,-1,1400,0,ITI,poldrack-single-stim,343,441687,0.0-6.1-138.1,go_nogo_deval,466,,<div></div>,32,1400,test,,,,,,,,,,,,-1,-1,500,0,fixation,poldrack-single-stim,344,442188,0.0-6.1-139.1,go_nogo_deval,466,,<div class = centerbox><div class = fixation>+</div></div>,none,500,test,,,,,,,,,,,,-1,-1,850,0,stim,poldrack-single-stim,345,443040,0.0-6.1-140.1,go_nogo_deval,466,,<img class = center src='/static/experiments/go_nogo_deval/images/green_rhombus.png'></img>,32,850,test,green_rhombus,nogo2,-1,46,1,,,,,,,-1,-1,1400,0,ITI,poldrack-single-stim,346,444442,0.0-6.1-141.1,go_nogo_deval,466,,<div></div>,32,1400,test,,,,,,,,,,,,-1,-1,500,0,fixation,poldrack-single-stim,347,444943,0.0-6.1-142.1,go_nogo_deval,466,,<div class = centerbox><div class = fixation>+</div></div>,none,500,test,,,,,,,,,,,,522,32,850,0,stim,poldrack-single-stim,348,445795,0.0-6.1-143.1,go_nogo_deval,466,,<img class = center src='/static/experiments/go_nogo_deval/images/purple_triangle.png'></img>,32,850,test,purple_triangle,go2,32,47,1,,,,,,,-1,-1,1400,0,ITI,poldrack-single-stim,349,447197,0.0-6.1-144.1,go_nogo_deval,466,,<div></div>,32,1400,test,,,,,,,,,,,,4048,13,4048,0,practice-no-stop-feedback,poldrack-single-stim,350,451248,0.0-6.2-0.2,go_nogo_deval,466,,<div class = centerbox><p class = block-text><br>Please take this time to read your feedback and to take a short break! Press enter to continue</p><p class = block-text><strong>Average reaction time:  426 ms. Accuracy: 98%</strong></p></div>,13,4048,,,,,,,,,,,,,-1,-1,500,0,fixation,poldrack-single-stim,351,451750,0.0-6.2-1.2,go_nogo_deval,466,,<div class = centerbox><div class = fixation>+</div></div>,none,500,test,,,,,,,,,,,,-1,-1,850,0,stim,poldrack-single-stim,352,452602,0.0-6.2-2.2,go_nogo_deval,466,,<img class = center src='/static/experiments/go_nogo_deval/images/green_rhombus.png'></img>,32,850,test,green_rhombus,nogo2,-1,0,2,,,,,,,-1,-1,1400,0,ITI,poldrack-single-stim,353,454004,0.0-6.2-3.2,go_nogo_deval,466,,<div></div>,32,1400,test,,,,,,,,,,,,-1,-1,500,0,fixation,poldrack-single-stim,354,454506,0.0-6.2-4.2,go_nogo_deval,466,,<div class = centerbox><div class = fixation>+</div></div>,none,500,test,,,,,,,,,,,,-1,-1,850,0,stim,poldrack-single-stim,355,455358,0.0-6.2-5.2,go_nogo_deval,466,,<img class = center src='/static/experiments/go_nogo_deval/images/green_rhombus.png'></img>,32,850,test,green_rhombus,nogo2,-1,1,2,,,,,,,-1,-1,1400,0,ITI,poldrack-single-stim,356,456759,0.0-6.2-6.2,go_nogo_deval,466,,<div></div>,32,1400,test,,,,,,,,,,,,-1,-1,500,0,fixation,poldrack-single-stim,357,457260,0.0-6.2-7.2,go_nogo_deval,466,,<div class = centerbox><div class = fixation>+</div></div>,none,500,test,,,,,,,,,,,,389,32,850,0,stim,poldrack-single-stim,358,458111,0.0-6.2-8.2,go_nogo_deval,466,,<img class = center src='/static/experiments/go_nogo_deval/images/blue_pentagon.png'></img>,32,850,test,blue_pentagon,go1,32,2,2,,,,,,,-1,-1,1400,0,ITI,poldrack-single-stim,359,459513,0.0-6.2-9.2,go_nogo_deval,466,,<div></div>,32,1400,test,,,,,,,,,,,,-1,-1,500,0,fixation,poldrack-single-stim,360,460014,0.0-6.2-10.2,go_nogo_deval,466,,<div class = centerbox><div class = fixation>+</div></div>,none,500,test,,,,,,,,,,,,458,32,850,0,stim,poldrack-single-stim,361,460866,0.0-6.2-11.2,go_nogo_deval,466,,<img class = center src='/static/experiments/go_nogo_deval/images/purple_triangle.png'></img>,32,850,test,purple_triangle,go2,32,3,2,,,,,,,-1,-1,1400,0,ITI,poldrack-single-stim,362,462268,0.0-6.2-12.2,go_nogo_deval,466,,<div></div>,32,1400,test,,,,,,,,,,,,-1,-1,500,0,fixation,poldrack-single-stim,363,462770,0.0-6.2-13.2,go_nogo_deval,466,,<div class = centerbox><div class = fixation>+</div></div>,none,500,test,,,,,,,,,,,,-1,-1,850,0,stim,poldrack-single-stim,364,463622,0.0-6.2-14.2,go_nogo_deval,466,,<img class = center src='/static/experiments/go_nogo_deval/images/red_circle.png'></img>,32,850,test,red_circle,nogo1,-1,4,2,,,,,,,-1,-1,1400,0,ITI,poldrack-single-stim,365,465024,0.0-6.2-15.2,go_nogo_deval,466,,<div></div>,32,1400,test,,,,,,,,,,,,-1,-1,500,0,fixation,poldrack-single-stim,366,465525,0.0-6.2-16.2,go_nogo_deval,466,,<div class = centerbox><div class = fixation>+</div></div>,none,500,test,,,,,,,,,,,,461,32,850,0,stim,poldrack-single-stim,367,466376,0.0-6.2-17.2,go_nogo_deval,466,,<img class = center src='/static/experiments/go_nogo_deval/images/blue_pentagon.png'></img>,32,850,test,blue_pentagon,go1,32,5,2,,,,,,,-1,-1,1400,0,ITI,poldrack-single-stim,368,467778,0.0-6.2-18.2,go_nogo_deval,466,,<div></div>,32,1400,test,,,,,,,,,,,,-1,-1,500,0,fixation,poldrack-single-stim,369,468280,0.0-6.2-19.2,go_nogo_deval,466,,<div class = centerbox><div class = fixation>+</div></div>,none,500,test,,,,,,,,,,,,-1,-1,850,0,stim,poldrack-single-stim,370,469132,0.0-6.2-20.2,go_nogo_deval,466,,<img class = center src='/static/experiments/go_nogo_deval/images/red_circle.png'></img>,32,850,test,red_circle,nogo1,-1,6,2,,,,,,,-1,-1,1400,0,ITI,poldrack-single-stim,371,470533,0.0-6.2-21.2,go_nogo_deval,466,,<div></div>,32,1400,test,,,,,,,,,,,,-1,-1,500,0,fixation,poldrack-single-stim,372,471035,0.0-6.2-22.2,go_nogo_deval,466,,<div class = centerbox><div class = fixation>+</div></div>,none,500,test,,,,,,,,,,,,-1,-1,850,0,stim,poldrack-single-stim,373,471887,0.0-6.2-23.2,go_nogo_deval,466,,<img class = center src='/static/experiments/go_nogo_deval/images/green_rhombus.png'></img>,32,850,test,green_rhombus,nogo2,-1,7,2,,,,,,,-1,-1,1400,0,ITI,poldrack-single-stim,374,473288,0.0-6.2-24.2,go_nogo_deval,466,,<div></div>,32,1400,test,,,,,,,,,,,,-1,-1,500,0,fixation,poldrack-single-stim,375,473789,0.0-6.2-25.2,go_nogo_deval,466,,<div class = centerbox><div class = fixation>+</div></div>,none,500,test,,,,,,,,,,,,376,32,850,0,stim,poldrack-single-stim,376,474641,0.0-6.2-26.2,go_nogo_deval,466,,<img class = center src='/static/experiments/go_nogo_deval/images/purple_triangle.png'></img>,32,850,test,purple_triangle,go2,32,8,2,,,,,,,-1,-1,1400,0,ITI,poldrack-single-stim,377,476043,0.0-6.2-27.2,go_nogo_deval,466,,<div></div>,32,1400,test,,,,,,,,,,,,-1,-1,500,0,fixation,poldrack-single-stim,378,476544,0.0-6.2-28.2,go_nogo_deval,466,,<div class = centerbox><div class = fixation>+</div></div>,none,500,test,,,,,,,,,,,,-1,-1,850,0,stim,poldrack-single-stim,379,477396,0.0-6.2-29.2,go_nogo_deval,466,,<img class = center src='/static/experiments/go_nogo_deval/images/red_circle.png'></img>,32,850,test,red_circle,nogo1,-1,9,2,,,,,,,-1,-1,1400,0,ITI,poldrack-single-stim,380,478798,0.0-6.2-30.2,go_nogo_deval,466,,<div></div>,32,1400,test,,,,,,,,,,,,-1,-1,500,0,fixation,poldrack-single-stim,381,479300,0.0-6.2-31.2,go_nogo_deval,466,,<div class = centerbox><div class = fixation>+</div></div>,none,500,test,,,,,,,,,,,,478,32,850,0,stim,poldrack-single-stim,382,480151,0.0-6.2-32.2,go_nogo_deval,466,,<img class = center src='/static/experiments/go_nogo_deval/images/purple_triangle.png'></img>,32,850,test,purple_triangle,go2,32,10,2,,,,,,,-1,-1,1400,0,ITI,poldrack-single-stim,383,481553,0.0-6.2-33.2,go_nogo_deval,466,,<div></div>,32,1400,test,,,,,,,,,,,,-1,-1,500,0,fixation,poldrack-single-stim,384,482054,0.0-6.2-34.2,go_nogo_deval,466,,<div class = centerbox><div class = fixation>+</div></div>,none,500,test,,,,,,,,,,,,412,32,850,0,stim,poldrack-single-stim,385,482906,0.0-6.2-35.2,go_nogo_deval,466,,<img class = center src='/static/experiments/go_nogo_deval/images/purple_triangle.png'></img>,32,850,test,purple_triangle,go2,32,11,2,,,,,,,-1,-1,1400,0,ITI,poldrack-single-stim,386,484307,0.0-6.2-36.2,go_nogo_deval,466,,<div></div>,32,1400,test,,,,,,,,,,,,-1,-1,500,0,fixation,poldrack-single-stim,387,484809,0.0-6.2-37.2,go_nogo_deval,466,,<div class = centerbox><div class = fixation>+</div></div>,none,500,test,,,,,,,,,,,,381,32,850,0,stim,poldrack-single-stim,388,485660,0.0-6.2-38.2,go_nogo_deval,466,,<img class = center src='/static/experiments/go_nogo_deval/images/purple_triangle.png'></img>,32,850,test,purple_triangle,go2,32,12,2,,,,,,,-1,-1,1400,0,ITI,poldrack-single-stim,389,487061,0.0-6.2-39.2,go_nogo_deval,466,,<div></div>,32,1400,test,,,,,,,,,,,,-1,-1,500,0,fixation,poldrack-single-stim,390,487563,0.0-6.2-40.2,go_nogo_deval,466,,<div class = centerbox><div class = fixation>+</div></div>,none,500,test,,,,,,,,,,,,-1,-1,850,0,stim,poldrack-single-stim,391,488415,0.0-6.2-41.2,go_nogo_deval,466,,<img class = center src='/static/experiments/go_nogo_deval/images/green_rhombus.png'></img>,32,850,test,green_rhombus,nogo2,-1,13,2,,,,,,,-1,-1,1400,0,ITI,poldrack-single-stim,392,489816,0.0-6.2-42.2,go_nogo_deval,466,,<div></div>,32,1400,test,,,,,,,,,,,,-1,-1,500,0,fixation,poldrack-single-stim,393,490319,0.0-6.2-43.2,go_nogo_deval,466,,<div class = centerbox><div class = fixation>+</div></div>,none,500,test,,,,,,,,,,,,-1,-1,850,0,stim,poldrack-single-stim,394,491171,0.0-6.2-44.2,go_nogo_deval,466,,<img class = center src='/static/experiments/go_nogo_deval/images/red_circle.png'></img>,32,850,test,red_circle,nogo1,-1,14,2,,,,,,,-1,-1,1400,0,ITI,poldrack-single-stim,395,492573,0.0-6.2-45.2,go_nogo_deval,466,,<div></div>,32,1400,test,,,,,,,,,,,,-1,-1,500,0,fixation,poldrack-single-stim,396,493075,0.0-6.2-46.2,go_nogo_deval,466,,<div class = centerbox><div class = fixation>+</div></div>,none,500,test,,,,,,,,,,,,428,32,850,0,stim,poldrack-single-stim,397,493927,0.0-6.2-47.2,go_nogo_deval,466,,<img class = center src='/static/experiments/go_nogo_deval/images/purple_triangle.png'></img>,32,850,test,purple_triangle,go2,32,15,2,,,,,,,-1,-1,1400,0,ITI,poldrack-single-stim,398,495329,0.0-6.2-48.2,go_nogo_deval,466,,<div></div>,32,1400,test,,,,,,,,,,,,-1,-1,500,0,fixation,poldrack-single-stim,399,495830,0.0-6.2-49.2,go_nogo_deval,466,,<div class = centerbox><div class = fixation>+</div></div>,none,500,test,,,,,,,,,,,,430,32,850,0,stim,poldrack-single-stim,400,496682,0.0-6.2-50.2,go_nogo_deval,466,,<img class = center src='/static/experiments/go_nogo_deval/images/blue_pentagon.png'></img>,32,850,test,blue_pentagon,go1,32,16,2,,,,,,,-1,-1,1400,0,ITI,poldrack-single-stim,401,498083,0.0-6.2-51.2,go_nogo_deval,466,,<div></div>,32,1400,test,,,,,,,,,,,,-1,-1,500,0,fixation,poldrack-single-stim,402,498585,0.0-6.2-52.2,go_nogo_deval,466,,<div class = centerbox><div class = fixation>+</div></div>,none,500,test,,,,,,,,,,,,-1,-1,850,0,stim,poldrack-single-stim,403,499437,0.0-6.2-53.2,go_nogo_deval,466,,<img class = center src='/static/experiments/go_nogo_deval/images/green_rhombus.png'></img>,32,850,test,green_rhombus,nogo2,-1,17,2,,,,,,,-1,-1,1400,0,ITI,poldrack-single-stim,404,500838,0.0-6.2-54.2,go_nogo_deval,466,,<div></div>,32,1400,test,,,,,,,,,,,,-1,-1,500,0,fixation,poldrack-single-stim,405,501340,0.0-6.2-55.2,go_nogo_deval,466,,<div class = centerbox><div class = fixation>+</div></div>,none,500,test,,,,,,,,,,,,431,32,850,0,stim,poldrack-single-stim,406,502192,0.0-6.2-56.2,go_nogo_deval,466,,<img class = center src='/static/experiments/go_nogo_deval/images/purple_triangle.png'></img>,32,850,test,purple_triangle,go2,32,18,2,,,,,,,-1,-1,1400,0,ITI,poldrack-single-stim,407,503593,0.0-6.2-57.2,go_nogo_deval,466,,<div></div>,32,1400,test,,,,,,,,,,,,-1,-1,500,0,fixation,poldrack-single-stim,408,504094,0.0-6.2-58.2,go_nogo_deval,466,,<div class = centerbox><div class = fixation>+</div></div>,none,500,test,,,,,,,,,,,,400,32,850,0,stim,poldrack-single-stim,409,504946,0.0-6.2-59.2,go_nogo_deval,466,,<img class = center src='/static/experiments/go_nogo_deval/images/blue_pentagon.png'></img>,32,850,test,blue_pentagon,go1,32,19,2,,,,,,,-1,-1,1400,0,ITI,poldrack-single-stim,410,506348,0.0-6.2-60.2,go_nogo_deval,466,,<div></div>,32,1400,test,,,,,,,,,,,,-1,-1,500,0,fixation,poldrack-single-stim,411,506850,0.0-6.2-61.2,go_nogo_deval,466,,<div class = centerbox><div class = fixation>+</div></div>,none,500,test,,,,,,,,,,,,379,32,850,0,stim,poldrack-single-stim,412,507702,0.0-6.2-62.2,go_nogo_deval,466,,<img class = center src='/static/experiments/go_nogo_deval/images/blue_pentagon.png'></img>,32,850,test,blue_pentagon,go1,32,20,2,,,,,,,-1,-1,1400,0,ITI,poldrack-single-stim,413,509103,0.0-6.2-63.2,go_nogo_deval,466,,<div></div>,32,1400,test,,,,,,,,,,,,-1,-1,500,0,fixation,poldrack-single-stim,414,509604,0.0-6.2-64.2,go_nogo_deval,466,,<div class = centerbox><div class = fixation>+</div></div>,none,500,test,,,,,,,,,,,,414,32,850,0,stim,poldrack-single-stim,415,510456,0.0-6.2-65.2,go_nogo_deval,466,,<img class = center src='/static/experiments/go_nogo_deval/images/purple_triangle.png'></img>,32,850,test,purple_triangle,go2,32,21,2,,,,,,,-1,-1,1400,0,ITI,poldrack-single-stim,416,511858,0.0-6.2-66.2,go_nogo_deval,466,,<div></div>,32,1400,test,,,,,,,,,,,,-1,-1,500,0,fixation,poldrack-single-stim,417,512360,0.0-6.2-67.2,go_nogo_deval,466,,<div class = centerbox><div class = fixation>+</div></div>,none,500,test,,,,,,,,,,,,449,32,850,0,stim,poldrack-single-stim,418,513212,0.0-6.2-68.2,go_nogo_deval,466,,<img class = center src='/static/experiments/go_nogo_deval/images/blue_pentagon.png'></img>,32,850,test,blue_pentagon,go1,32,22,2,,,,,,,-1,-1,1400,0,ITI,poldrack-single-stim,419,514612,0.0-6.2-69.2,go_nogo_deval,466,,<div></div>,32,1400,test,,,,,,,,,,,,-1,-1,500,0,fixation,poldrack-single-stim,420,515113,0.0-6.2-70.2,go_nogo_deval,466,,<div class = centerbox><div class = fixation>+</div></div>,none,500,test,,,,,,,,,,,,452,32,850,0,stim,poldrack-single-stim,421,515965,0.0-6.2-71.2,go_nogo_deval,466,,<img class = center src='/static/experiments/go_nogo_deval/images/purple_triangle.png'></img>,32,850,test,purple_triangle,go2,32,23,2,,,,,,,-1,-1,1400,0,ITI,poldrack-single-stim,422,517367,0.0-6.2-72.2,go_nogo_deval,466,,<div></div>,32,1400,test,,,,,,,,,,,,-1,-1,500,0,fixation,poldrack-single-stim,423,517869,0.0-6.2-73.2,go_nogo_deval,466,,<div class = centerbox><div class = fixation>+</div></div>,none,500,test,,,,,,,,,,,,-1,-1,850,0,stim,poldrack-single-stim,424,518721,0.0-6.2-74.2,go_nogo_deval,466,,<img class = center src='/static/experiments/go_nogo_deval/images/red_circle.png'></img>,32,850,test,red_circle,nogo1,-1,24,2,,,,,,,-1,-1,1400,0,ITI,poldrack-single-stim,425,520122,0.0-6.2-75.2,go_nogo_deval,466,,<div></div>,32,1400,test,,,,,,,,,,,,-1,-1,500,0,fixation,poldrack-single-stim,426,520624,0.0-6.2-76.2,go_nogo_deval,466,,<div class = centerbox><div class = fixation>+</div></div>,none,500,test,,,,,,,,,,,,499,32,850,0,stim,poldrack-single-stim,427,521475,0.0-6.2-77.2,go_nogo_deval,466,,<img class = center src='/static/experiments/go_nogo_deval/images/blue_pentagon.png'></img>,32,850,test,blue_pentagon,go1,32,25,2,,,,,,,-1,-1,1400,0,ITI,poldrack-single-stim,428,522877,0.0-6.2-78.2,go_nogo_deval,466,,<div></div>,32,1400,test,,,,,,,,,,,,-1,-1,500,0,fixation,poldrack-single-stim,429,523379,0.0-6.2-79.2,go_nogo_deval,466,,<div class = centerbox><div class = fixation>+</div></div>,none,500,test,,,,,,,,,,,,-1,-1,850,0,stim,poldrack-single-stim,430,524231,0.0-6.2-80.2,go_nogo_deval,466,,<img class = center src='/static/experiments/go_nogo_deval/images/green_rhombus.png'></img>,32,850,test,green_rhombus,nogo2,-1,26,2,,,,,,,-1,-1,1400,0,ITI,poldrack-single-stim,431,525633,0.0-6.2-81.2,go_nogo_deval,466,,<div></div>,32,1400,test,,,,,,,,,,,,-1,-1,500,0,fixation,poldrack-single-stim,432,526135,0.0-6.2-82.2,go_nogo_deval,466,,<div class = centerbox><div class = fixation>+</div></div>,none,500,test,,,,,,,,,,,,-1,-1,850,0,stim,poldrack-single-stim,433,526987,0.0-6.2-83.2,go_nogo_deval,466,,<img class = center src='/static/experiments/go_nogo_deval/images/green_rhombus.png'></img>,32,850,test,green_rhombus,nogo2,-1,27,2,,,,,,,-1,-1,1400,0,ITI,poldrack-single-stim,434,528388,0.0-6.2-84.2,go_nogo_deval,466,,<div></div>,32,1400,test,,,,,,,,,,,,-1,-1,500,0,fixation,poldrack-single-stim,435,528890,0.0-6.2-85.2,go_nogo_deval,466,,<div class = centerbox><div class = fixation>+</div></div>,none,500,test,,,,,,,,,,,,433,32,850,0,stim,poldrack-single-stim,436,529741,0.0-6.2-86.2,go_nogo_deval,466,,<img class = center src='/static/experiments/go_nogo_deval/images/blue_pentagon.png'></img>,32,850,test,blue_pentagon,go1,32,28,2,,,,,,,-1,-1,1400,0,ITI,poldrack-single-stim,437,531143,0.0-6.2-87.2,go_nogo_deval,466,,<div></div>,32,1400,test,,,,,,,,,,,,-1,-1,500,0,fixation,poldrack-single-stim,438,531644,0.0-6.2-88.2,go_nogo_deval,466,,<div class = centerbox><div class = fixation>+</div></div>,none,500,test,,,,,,,,,,,,470,32,850,0,stim,poldrack-single-stim,439,532496,0.0-6.2-89.2,go_nogo_deval,466,,<img class = center src='/static/experiments/go_nogo_deval/images/purple_triangle.png'></img>,32,850,test,purple_triangle,go2,32,29,2,,,,,,,-1,-1,1400,0,ITI,poldrack-single-stim,440,533897,0.0-6.2-90.2,go_nogo_deval,466,,<div></div>,32,1400,test,,,,,,,,,,,,-1,-1,500,0,fixation,poldrack-single-stim,441,534399,0.0-6.2-91.2,go_nogo_deval,466,,<div class = centerbox><div class = fixation>+</div></div>,none,500,test,,,,,,,,,,,,-1,-1,850,0,stim,poldrack-single-stim,442,535252,0.0-6.2-92.2,go_nogo_deval,466,,<img class = center src='/static/experiments/go_nogo_deval/images/red_circle.png'></img>,32,850,test,red_circle,nogo1,-1,30,2,,,,,,,-1,-1,1400,0,ITI,poldrack-single-stim,443,536653,0.0-6.2-93.2,go_nogo_deval,466,,<div></div>,32,1400,test,,,,,,,,,,,,-1,-1,500,0,fixation,poldrack-single-stim,444,537154,0.0-6.2-94.2,go_nogo_deval,466,,<div class = centerbox><div class = fixation>+</div></div>,none,500,test,,,,,,,,,,,,449,32,850,0,stim,poldrack-single-stim,445,538006,0.0-6.2-95.2,go_nogo_deval,466,,<img class = center src='/static/experiments/go_nogo_deval/images/purple_triangle.png'></img>,32,850,test,purple_triangle,go2,32,31,2,,,,,,,-1,-1,1400,0,ITI,poldrack-single-stim,446,539408,0.0-6.2-96.2,go_nogo_deval,466,,<div></div>,32,1400,test,,,,,,,,,,,,-1,-1,500,0,fixation,poldrack-single-stim,447,539910,0.0-6.2-97.2,go_nogo_deval,466,,<div class = centerbox><div class = fixation>+</div></div>,none,500,test,,,,,,,,,,,,439,32,850,0,stim,poldrack-single-stim,448,540762,0.0-6.2-98.2,go_nogo_deval,466,,<img class = center src='/static/experiments/go_nogo_deval/images/purple_triangle.png'></img>,32,850,test,purple_triangle,go2,32,32,2,,,,,,,-1,-1,1400,0,ITI,poldrack-single-stim,449,542163,0.0-6.2-99.2,go_nogo_deval,466,,<div></div>,32,1400,test,,,,,,,,,,,,-1,-1,500,0,fixation,poldrack-single-stim,450,542664,0.0-6.2-100.2,go_nogo_deval,466,,<div class = centerbox><div class = fixation>+</div></div>,none,500,test,,,,,,,,,,,,475,32,850,0,stim,poldrack-single-stim,451,543516,0.0-6.2-101.2,go_nogo_deval,466,,<img class = center src='/static/experiments/go_nogo_deval/images/blue_pentagon.png'></img>,32,850,test,blue_pentagon,go1,32,33,2,,,,,,,-1,-1,1400,0,ITI,poldrack-single-stim,452,544917,0.0-6.2-102.2,go_nogo_deval,466,,<div></div>,32,1400,test,,,,,,,,,,,,-1,-1,500,0,fixation,poldrack-single-stim,453,545419,0.0-6.2-103.2,go_nogo_deval,466,,<div class = centerbox><div class = fixation>+</div></div>,none,500,test,,,,,,,,,,,,409,32,850,0,stim,poldrack-single-stim,454,546271,0.0-6.2-104.2,go_nogo_deval,466,,<img class = center src='/static/experiments/go_nogo_deval/images/purple_triangle.png'></img>,32,850,test,purple_triangle,go2,32,34,2,,,,,,,-1,-1,1400,0,ITI,poldrack-single-stim,455,547672,0.0-6.2-105.2,go_nogo_deval,466,,<div></div>,32,1400,test,,,,,,,,,,,,-1,-1,500,0,fixation,poldrack-single-stim,456,548173,0.0-6.2-106.2,go_nogo_deval,466,,<div class = centerbox><div class = fixation>+</div></div>,none,500,test,,,,,,,,,,,,-1,-1,850,0,stim,poldrack-single-stim,457,549024,0.0-6.2-107.2,go_nogo_deval,466,,<img class = center src='/static/experiments/go_nogo_deval/images/red_circle.png'></img>,32,850,test,red_circle,nogo1,-1,35,2,,,,,,,-1,-1,1400,0,ITI,poldrack-single-stim,458,550426,0.0-6.2-108.2,go_nogo_deval,466,,<div></div>,32,1400,test,,,,,,,,,,,,-1,-1,500,0,fixation,poldrack-single-stim,459,550928,0.0-6.2-109.2,go_nogo_deval,466,,<div class = centerbox><div class = fixation>+</div></div>,none,500,test,,,,,,,,,,,,502,32,850,0,stim,poldrack-single-stim,460,551780,0.0-6.2-110.2,go_nogo_deval,466,,<img class = center src='/static/experiments/go_nogo_deval/images/blue_pentagon.png'></img>,32,850,test,blue_pentagon,go1,32,36,2,,,,,,,-1,-1,1400,0,ITI,poldrack-single-stim,461,553180,0.0-6.2-111.2,go_nogo_deval,466,,<div></div>,32,1400,test,,,,,,,,,,,,-1,-1,500,0,fixation,poldrack-single-stim,462,553682,0.0-6.2-112.2,go_nogo_deval,466,,<div class = centerbox><div class = fixation>+</div></div>,none,500,test,,,,,,,,,,,,403,32,850,0,stim,poldrack-single-stim,463,554534,0.0-6.2-113.2,go_nogo_deval,466,,<img class = center src='/static/experiments/go_nogo_deval/images/purple_triangle.png'></img>,32,850,test,purple_triangle,go2,32,37,2,,,,,,,-1,-1,1400,0,ITI,poldrack-single-stim,464,555936,0.0-6.2-114.2,go_nogo_deval,466,,<div></div>,32,1400,test,,,,,,,,,,,,-1,-1,500,0,fixation,poldrack-single-stim,465,556437,0.0-6.2-115.2,go_nogo_deval,466,,<div class = centerbox><div class = fixation>+</div></div>,none,500,test,,,,,,,,,,,,438,32,850,0,stim,poldrack-single-stim,466,557288,0.0-6.2-116.2,go_nogo_deval,466,,<img class = center src='/static/experiments/go_nogo_deval/images/blue_pentagon.png'></img>,32,850,test,blue_pentagon,go1,32,38,2,,,,,,,-1,-1,1400,0,ITI,poldrack-single-stim,467,558689,0.0-6.2-117.2,go_nogo_deval,466,,<div></div>,32,1400,test,,,,,,,,,,,,-1,-1,500,0,fixation,poldrack-single-stim,468,559191,0.0-6.2-118.2,go_nogo_deval,466,,<div class = centerbox><div class = fixation>+</div></div>,none,500,test,,,,,,,,,,,,407,32,850,0,stim,poldrack-single-stim,469,560042,0.0-6.2-119.2,go_nogo_deval,466,,<img class = center src='/static/experiments/go_nogo_deval/images/blue_pentagon.png'></img>,32,850,test,blue_pentagon,go1,32,39,2,,,,,,,-1,-1,1400,0,ITI,poldrack-single-stim,470,561443,0.0-6.2-120.2,go_nogo_deval,466,,<div></div>,32,1400,test,,,,,,,,,,,,-1,-1,500,0,fixation,poldrack-single-stim,471,561945,0.0-6.2-121.2,go_nogo_deval,466,,<div class = centerbox><div class = fixation>+</div></div>,none,500,test,,,,,,,,,,,,408,32,850,0,stim,poldrack-single-stim,472,562797,0.0-6.2-122.2,go_nogo_deval,466,,<img class = center src='/static/experiments/go_nogo_deval/images/purple_triangle.png'></img>,32,850,test,purple_triangle,go2,32,40,2,,,,,,,-1,-1,1400,0,ITI,poldrack-single-stim,473,564199,0.0-6.2-123.2,go_nogo_deval,466,,<div></div>,32,1400,test,,,,,,,,,,,,-1,-1,500,0,fixation,poldrack-single-stim,474,564701,0.0-6.2-124.2,go_nogo_deval,466,,<div class = centerbox><div class = fixation>+</div></div>,none,500,test,,,,,,,,,,,,-1,-1,850,0,stim,poldrack-single-stim,475,565553,0.0-6.2-125.2,go_nogo_deval,466,,<img class = center src='/static/experiments/go_nogo_deval/images/green_rhombus.png'></img>,32,850,test,green_rhombus,nogo2,-1,41,2,,,,,,,-1,-1,1400,0,ITI,poldrack-single-stim,476,566955,0.0-6.2-126.2,go_nogo_deval,466,,<div></div>,32,1400,test,,,,,,,,,,,,-1,-1,500,0,fixation,poldrack-single-stim,477,567456,0.0-6.2-127.2,go_nogo_deval,466,,<div class = centerbox><div class = fixation>+</div></div>,none,500,test,,,,,,,,,,,,355,32,850,0,stim,poldrack-single-stim,478,568308,0.0-6.2-128.2,go_nogo_deval,466,,<img class = center src='/static/experiments/go_nogo_deval/images/blue_pentagon.png'></img>,32,850,test,blue_pentagon,go1,32,42,2,,,,,,,-1,-1,1400,0,ITI,poldrack-single-stim,479,569709,0.0-6.2-129.2,go_nogo_deval,466,,<div></div>,32,1400,test,,,,,,,,,,,,-1,-1,500,0,fixation,poldrack-single-stim,480,570211,0.0-6.2-130.2,go_nogo_deval,466,,<div class = centerbox><div class = fixation>+</div></div>,none,500,test,,,,,,,,,,,,423,32,850,0,stim,poldrack-single-stim,481,571063,0.0-6.2-131.2,go_nogo_deval,466,,<img class = center src='/static/experiments/go_nogo_deval/images/blue_pentagon.png'></img>,32,850,test,blue_pentagon,go1,32,43,2,,,,,,,-1,-1,1400,0,ITI,poldrack-single-stim,482,572464,0.0-6.2-132.2,go_nogo_deval,466,,<div></div>,32,1400,test,,,,,,,,,,,,-1,-1,500,0,fixation,poldrack-single-stim,483,572966,0.0-6.2-133.2,go_nogo_deval,466,,<div class = centerbox><div class = fixation>+</div></div>,none,500,test,,,,,,,,,,,,413,32,850,0,stim,poldrack-single-stim,484,573816,0.0-6.2-134.2,go_nogo_deval,466,,<img class = center src='/static/experiments/go_nogo_deval/images/blue_pentagon.png'></img>,32,850,test,blue_pentagon,go1,32,44,2,,,,,,,-1,-1,1400,0,ITI,poldrack-single-stim,485,575218,0.0-6.2-135.2,go_nogo_deval,466,,<div></div>,32,1400,test,,,,,,,,,,,,-1,-1,500,0,fixation,poldrack-single-stim,486,575720,0.0-6.2-136.2,go_nogo_deval,466,,<div class = centerbox><div class = fixation>+</div></div>,none,500,test,,,,,,,,,,,,573,32,850,0,stim,poldrack-single-stim,487,576572,0.0-6.2-137.2,go_nogo_deval,466,,<img class = center src='/static/experiments/go_nogo_deval/images/purple_triangle.png'></img>,32,850,test,purple_triangle,go2,32,45,2,,,,,,,-1,-1,1400,0,ITI,poldrack-single-stim,488,577973,0.0-6.2-138.2,go_nogo_deval,466,,<div></div>,32,1400,test,,,,,,,,,,,,-1,-1,500,0,fixation,poldrack-single-stim,489,578474,0.0-6.2-139.2,go_nogo_deval,466,,<div class = centerbox><div class = fixation>+</div></div>,none,500,test,,,,,,,,,,,,-1,-1,850,0,stim,poldrack-single-stim,490,579325,0.0-6.2-140.2,go_nogo_deval,466,,<img class = center src='/static/experiments/go_nogo_deval/images/red_circle.png'></img>,32,850,test,red_circle,nogo1,-1,46,2,,,,,,,-1,-1,1400,0,ITI,poldrack-single-stim,491,580727,0.0-6.2-141.2,go_nogo_deval,466,,<div></div>,32,1400,test,,,,,,,,,,,,-1,-1,500,0,fixation,poldrack-single-stim,492,581229,0.0-6.2-142.2,go_nogo_deval,466,,<div class = centerbox><div class = fixation>+</div></div>,none,500,test,,,,,,,,,,,,453,32,850,0,stim,poldrack-single-stim,493,582080,0.0-6.2-143.2,go_nogo_deval,466,,<img class = center src='/static/experiments/go_nogo_deval/images/blue_pentagon.png'></img>,32,850,test,blue_pentagon,go1,32,47,2,,,,,,,-1,-1,1400,0,ITI,poldrack-single-stim,494,583481,0.0-6.2-144.2,go_nogo_deval,466,,<div></div>,32,1400,test,,,,,,,,,,,,3517,13,3517,0,practice-no-stop-feedback,poldrack-single-stim,495,587003,0.0-6.3-0.3,go_nogo_deval,466,,<div class = centerbox><p class = block-text><br>Please take this time to read your feedback and to take a short break! Press enter to continue</p><p class = block-text><strong>Average reaction time:  434 ms. Accuracy: 100%</strong></p></div>,13,3517,,,,,,,,,,,,,-1,-1,500,0,fixation,poldrack-single-stim,496,587504,0.0-6.3-1.3,go_nogo_deval,466,,<div class = centerbox><div class = fixation>+</div></div>,none,500,test,,,,,,,,,,,,455,32,850,0,stim,poldrack-single-stim,497,588356,0.0-6.3-2.3,go_nogo_deval,466,,<img class = center src='/static/experiments/go_nogo_deval/images/purple_triangle.png'></img>,32,850,test,purple_triangle,go2,32,0,3,,,,,,,-1,-1,1400,0,ITI,poldrack-single-stim,498,589758,0.0-6.3-3.3,go_nogo_deval,466,,<div></div>,32,1400,test,,,,,,,,,,,,-1,-1,500,0,fixation,poldrack-single-stim,499,590260,0.0-6.3-4.3,go_nogo_deval,466,,<div class = centerbox><div class = fixation>+</div></div>,none,500,test,,,,,,,,,,,,-1,-1,850,0,stim,poldrack-single-stim,500,591112,0.0-6.3-5.3,go_nogo_deval,466,,<img class = center src='/static/experiments/go_nogo_deval/images/red_circle.png'></img>,32,850,test,red_circle,nogo1,-1,1,3,,,,,,,-1,-1,1400,0,ITI,poldrack-single-stim,501,592513,0.0-6.3-6.3,go_nogo_deval,466,,<div></div>,32,1400,test,,,,,,,,,,,,-1,-1,500,0,fixation,poldrack-single-stim,502,593015,0.0-6.3-7.3,go_nogo_deval,466,,<div class = centerbox><div class = fixation>+</div></div>,none,500,test,,,,,,,,,,,,-1,-1,850,0,stim,poldrack-single-stim,503,593866,0.0-6.3-8.3,go_nogo_deval,466,,<img class = center src='/static/experiments/go_nogo_deval/images/green_rhombus.png'></img>,32,850,test,green_rhombus,nogo2,-1,2,3,,,,,,,-1,-1,1400,0,ITI,poldrack-single-stim,504,595268,0.0-6.3-9.3,go_nogo_deval,466,,<div></div>,32,1400,test,,,,,,,,,,,,-1,-1,500,0,fixation,poldrack-single-stim,505,595770,0.0-6.3-10.3,go_nogo_deval,466,,<div class = centerbox><div class = fixation>+</div></div>,none,500,test,,,,,,,,,,,,425,32,850,0,stim,poldrack-single-stim,506,596621,0.0-6.3-11.3,go_nogo_deval,466,,<img class = center src='/static/experiments/go_nogo_deval/images/blue_pentagon.png'></img>,32,850,test,blue_pentagon,go1,32,3,3,,,,,,,-1,-1,1400,0,ITI,poldrack-single-stim,507,598023,0.0-6.3-12.3,go_nogo_deval,466,,<div></div>,32,1400,test,,,,,,,,,,,,-1,-1,500,0,fixation,poldrack-single-stim,508,598525,0.0-6.3-13.3,go_nogo_deval,466,,<div class = centerbox><div class = fixation>+</div></div>,none,500,test,,,,,,,,,,,,-1,-1,850,0,stim,poldrack-single-stim,509,599377,0.0-6.3-14.3,go_nogo_deval,466,,<img class = center src='/static/experiments/go_nogo_deval/images/green_rhombus.png'></img>,32,850,test,green_rhombus,nogo2,-1,4,3,,,,,,,-1,-1,1400,0,ITI,poldrack-single-stim,510,600779,0.0-6.3-15.3,go_nogo_deval,466,,<div></div>,32,1400,test,,,,,,,,,,,,-1,-1,500,0,fixation,poldrack-single-stim,511,601279,0.0-6.3-16.3,go_nogo_deval,466,,<div class = centerbox><div class = fixation>+</div></div>,none,500,test,,,,,,,,,,,,438,32,850,0,stim,poldrack-single-stim,512,602131,0.0-6.3-17.3,go_nogo_deval,466,,<img class = center src='/static/experiments/go_nogo_deval/images/purple_triangle.png'></img>,32,850,test,purple_triangle,go2,32,5,3,,,,,,,-1,-1,1400,0,ITI,poldrack-single-stim,513,603533,0.0-6.3-18.3,go_nogo_deval,466,,<div></div>,32,1400,test,,,,,,,,,,,,-1,-1,500,0,fixation,poldrack-single-stim,514,604035,0.0-6.3-19.3,go_nogo_deval,466,,<div class = centerbox><div class = fixation>+</div></div>,none,500,test,,,,,,,,,,,,372,32,850,0,stim,poldrack-single-stim,515,604886,0.0-6.3-20.3,go_nogo_deval,466,,<img class = center src='/static/experiments/go_nogo_deval/images/purple_triangle.png'></img>,32,850,test,purple_triangle,go2,32,6,3,,,,,,,-1,-1,1400,0,ITI,poldrack-single-stim,516,606288,0.0-6.3-21.3,go_nogo_deval,466,,<div></div>,32,1400,test,,,,,,,,,,,,-1,-1,500,0,fixation,poldrack-single-stim,517,606790,0.0-6.3-22.3,go_nogo_deval,466,,<div class = centerbox><div class = fixation>+</div></div>,none,500,test,,,,,,,,,,,,-1,-1,850,0,stim,poldrack-single-stim,518,607642,0.0-6.3-23.3,go_nogo_deval,466,,<img class = center src='/static/experiments/go_nogo_deval/images/red_circle.png'></img>,32,850,test,red_circle,nogo1,-1,7,3,,,,,,,-1,-1,1400,0,ITI,poldrack-single-stim,519,609044,0.0-6.3-24.3,go_nogo_deval,466,,<div></div>,32,1400,test,,,,,,,,,,,,-1,-1,500,0,fixation,poldrack-single-stim,520,609545,0.0-6.3-25.3,go_nogo_deval,466,,<div class = centerbox><div class = fixation>+</div></div>,none,500,test,,,,,,,,,,,,386,32,850,0,stim,poldrack-single-stim,521,610396,0.0-6.3-26.3,go_nogo_deval,466,,<img class = center src='/static/experiments/go_nogo_deval/images/purple_triangle.png'></img>,32,850,test,purple_triangle,go2,32,8,3,,,,,,,-1,-1,1400,0,ITI,poldrack-single-stim,522,611797,0.0-6.3-27.3,go_nogo_deval,466,,<div></div>,32,1400,test,,,,,,,,,,,,-1,-1,500,0,fixation,poldrack-single-stim,523,612298,0.0-6.3-28.3,go_nogo_deval,466,,<div class = centerbox><div class = fixation>+</div></div>,none,500,test,,,,,,,,,,,,445,32,850,0,stim,poldrack-single-stim,524,613149,0.0-6.3-29.3,go_nogo_deval,466,,<img class = center src='/static/experiments/go_nogo_deval/images/blue_pentagon.png'></img>,32,850,test,blue_pentagon,go1,32,9,3,,,,,,,-1,-1,1400,0,ITI,poldrack-single-stim,525,614551,0.0-6.3-30.3,go_nogo_deval,466,,<div></div>,32,1400,test,,,,,,,,,,,,-1,-1,500,0,fixation,poldrack-single-stim,526,615053,0.0-6.3-31.3,go_nogo_deval,466,,<div class = centerbox><div class = fixation>+</div></div>,none,500,test,,,,,,,,,,,,-1,-1,850,0,stim,poldrack-single-stim,527,615905,0.0-6.3-32.3,go_nogo_deval,466,,<img class = center src='/static/experiments/go_nogo_deval/images/green_rhombus.png'></img>,32,850,test,green_rhombus,nogo2,-1,10,3,,,,,,,-1,-1,1400,0,ITI,poldrack-single-stim,528,617305,0.0-6.3-33.3,go_nogo_deval,466,,<div></div>,32,1400,test,,,,,,,,,,,,-1,-1,500,0,fixation,poldrack-single-stim,529,617807,0.0-6.3-34.3,go_nogo_deval,466,,<div class = centerbox><div class = fixation>+</div></div>,none,500,test,,,,,,,,,,,,415,32,850,0,stim,poldrack-single-stim,530,618658,0.0-6.3-35.3,go_nogo_deval,466,,<img class = center src='/static/experiments/go_nogo_deval/images/purple_triangle.png'></img>,32,850,test,purple_triangle,go2,32,11,3,,,,,,,-1,-1,1400,0,ITI,poldrack-single-stim,531,620060,0.0-6.3-36.3,go_nogo_deval,466,,<div></div>,32,1400,test,,,,,,,,,,,,-1,-1,500,0,fixation,poldrack-single-stim,532,620562,0.0-6.3-37.3,go_nogo_deval,466,,<div class = centerbox><div class = fixation>+</div></div>,none,500,test,,,,,,,,,,,,395,32,850,0,stim,poldrack-single-stim,533,621413,0.0-6.3-38.3,go_nogo_deval,466,,<img class = center src='/static/experiments/go_nogo_deval/images/blue_pentagon.png'></img>,32,850,test,blue_pentagon,go1,32,12,3,,,,,,,-1,-1,1400,0,ITI,poldrack-single-stim,534,622814,0.0-6.3-39.3,go_nogo_deval,466,,<div></div>,32,1400,test,,,,,,,,,,,,-1,-1,500,0,fixation,poldrack-single-stim,535,623316,0.0-6.3-40.3,go_nogo_deval,466,,<div class = centerbox><div class = fixation>+</div></div>,none,500,test,,,,,,,,,,,,-1,-1,850,0,stim,poldrack-single-stim,536,624167,0.0-6.3-41.3,go_nogo_deval,466,,<img class = center src='/static/experiments/go_nogo_deval/images/red_circle.png'></img>,32,850,test,red_circle,nogo1,-1,13,3,,,,,,,-1,-1,1400,0,ITI,poldrack-single-stim,537,625569,0.0-6.3-42.3,go_nogo_deval,466,,<div></div>,32,1400,test,,,,,,,,,,,,-1,-1,500,0,fixation,poldrack-single-stim,538,626070,0.0-6.3-43.3,go_nogo_deval,466,,<div class = centerbox><div class = fixation>+</div></div>,none,500,test,,,,,,,,,,,,454,32,850,0,stim,poldrack-single-stim,539,626922,0.0-6.3-44.3,go_nogo_deval,466,,<img class = center src='/static/experiments/go_nogo_deval/images/purple_triangle.png'></img>,32,850,test,purple_triangle,go2,32,14,3,,,,,,,-1,-1,1400,0,ITI,poldrack-single-stim,540,628324,0.0-6.3-45.3,go_nogo_deval,466,,<div></div>,32,1400,test,,,,,,,,,,,,-1,-1,500,0,fixation,poldrack-single-stim,541,628825,0.0-6.3-46.3,go_nogo_deval,466,,<div class = centerbox><div class = fixation>+</div></div>,none,500,test,,,,,,,,,,,,-1,-1,850,0,stim,poldrack-single-stim,542,629677,0.0-6.3-47.3,go_nogo_deval,466,,<img class = center src='/static/experiments/go_nogo_deval/images/red_circle.png'></img>,32,850,test,red_circle,nogo1,-1,15,3,,,,,,,-1,-1,1400,0,ITI,poldrack-single-stim,543,631078,0.0-6.3-48.3,go_nogo_deval,466,,<div></div>,32,1400,test,,,,,,,,,,,,-1,-1,500,0,fixation,poldrack-single-stim,544,631579,0.0-6.3-49.3,go_nogo_deval,466,,<div class = centerbox><div class = fixation>+</div></div>,none,500,test,,,,,,,,,,,,469,32,850,0,stim,poldrack-single-stim,545,632431,0.0-6.3-50.3,go_nogo_deval,466,,<img class = center src='/static/experiments/go_nogo_deval/images/blue_pentagon.png'></img>,32,850,test,blue_pentagon,go1,32,16,3,,,,,,,-1,-1,1400,0,ITI,poldrack-single-stim,546,633833,0.0-6.3-51.3,go_nogo_deval,466,,<div></div>,32,1400,test,,,,,,,,,,,,-1,-1,500,0,fixation,poldrack-single-stim,547,634335,0.0-6.3-52.3,go_nogo_deval,466,,<div class = centerbox><div class = fixation>+</div></div>,none,500,test,,,,,,,,,,,,-1,-1,850,0,stim,poldrack-single-stim,548,635187,0.0-6.3-53.3,go_nogo_deval,466,,<img class = center src='/static/experiments/go_nogo_deval/images/red_circle.png'></img>,32,850,test,red_circle,nogo1,-1,17,3,,,,,,,-1,-1,1400,0,ITI,poldrack-single-stim,549,636589,0.0-6.3-54.3,go_nogo_deval,466,,<div></div>,32,1400,test,,,,,,,,,,,,-1,-1,500,0,fixation,poldrack-single-stim,550,637090,0.0-6.3-55.3,go_nogo_deval,466,,<div class = centerbox><div class = fixation>+</div></div>,none,500,test,,,,,,,,,,,,391,32,850,0,stim,poldrack-single-stim,551,637941,0.0-6.3-56.3,go_nogo_deval,466,,<img class = center src='/static/experiments/go_nogo_deval/images/purple_triangle.png'></img>,32,850,test,purple_triangle,go2,32,18,3,,,,,,,-1,-1,1400,0,ITI,poldrack-single-stim,552,639343,0.0-6.3-57.3,go_nogo_deval,466,,<div></div>,32,1400,test,,,,,,,,,,,,-1,-1,500,0,fixation,poldrack-single-stim,553,639845,0.0-6.3-58.3,go_nogo_deval,466,,<div class = centerbox><div class = fixation>+</div></div>,none,500,test,,,,,,,,,,,,-1,-1,850,0,stim,poldrack-single-stim,554,640697,0.0-6.3-59.3,go_nogo_deval,466,,<img class = center src='/static/experiments/go_nogo_deval/images/green_rhombus.png'></img>,32,850,test,green_rhombus,nogo2,-1,19,3,,,,,,,-1,-1,1400,0,ITI,poldrack-single-stim,555,642097,0.0-6.3-60.3,go_nogo_deval,466,,<div></div>,32,1400,test,,,,,,,,,,,,-1,-1,500,0,fixation,poldrack-single-stim,556,642599,0.0-6.3-61.3,go_nogo_deval,466,,<div class = centerbox><div class = fixation>+</div></div>,none,500,test,,,,,,,,,,,,441,32,850,0,stim,poldrack-single-stim,557,643450,0.0-6.3-62.3,go_nogo_deval,466,,<img class = center src='/static/experiments/go_nogo_deval/images/purple_triangle.png'></img>,32,850,test,purple_triangle,go2,32,20,3,,,,,,,-1,-1,1400,0,ITI,poldrack-single-stim,558,644852,0.0-6.3-63.3,go_nogo_deval,466,,<div></div>,32,1400,test,,,,,,,,,,,,-1,-1,500,0,fixation,poldrack-single-stim,559,645353,0.0-6.3-64.3,go_nogo_deval,466,,<div class = centerbox><div class = fixation>+</div></div>,none,500,test,,,,,,,,,,,,386,32,850,0,stim,poldrack-single-stim,560,646205,0.0-6.3-65.3,go_nogo_deval,466,,<img class = center src='/static/experiments/go_nogo_deval/images/blue_pentagon.png'></img>,32,850,test,blue_pentagon,go1,32,21,3,,,,,,,-1,-1,1400,0,ITI,poldrack-single-stim,561,647606,0.0-6.3-66.3,go_nogo_deval,466,,<div></div>,32,1400,test,,,,,,,,,,,,-1,-1,500,0,fixation,poldrack-single-stim,562,648108,0.0-6.3-67.3,go_nogo_deval,466,,<div class = centerbox><div class = fixation>+</div></div>,none,500,test,,,,,,,,,,,,444,32,850,0,stim,poldrack-single-stim,563,648959,0.0-6.3-68.3,go_nogo_deval,466,,<img class = center src='/static/experiments/go_nogo_deval/images/purple_triangle.png'></img>,32,850,test,purple_triangle,go2,32,22,3,,,,,,,-1,-1,1400,0,ITI,poldrack-single-stim,564,650360,0.0-6.3-69.3,go_nogo_deval,466,,<div></div>,32,1400,test,,,,,,,,,,,,-1,-1,500,0,fixation,poldrack-single-stim,565,650862,0.0-6.3-70.3,go_nogo_deval,466,,<div class = centerbox><div class = fixation>+</div></div>,none,500,test,,,,,,,,,,,,389,32,850,0,stim,poldrack-single-stim,566,651714,0.0-6.3-71.3,go_nogo_deval,466,,<img class = center src='/static/experiments/go_nogo_deval/images/blue_pentagon.png'></img>,32,850,test,blue_pentagon,go1,32,23,3,,,,,,,-1,-1,1400,0,ITI,poldrack-single-stim,567,653115,0.0-6.3-72.3,go_nogo_deval,466,,<div></div>,32,1400,test,,,,,,,,,,,,-1,-1,500,0,fixation,poldrack-single-stim,568,653617,0.0-6.3-73.3,go_nogo_deval,466,,<div class = centerbox><div class = fixation>+</div></div>,none,500,test,,,,,,,,,,,,415,32,850,0,stim,poldrack-single-stim,569,654467,0.0-6.3-74.3,go_nogo_deval,466,,<img class = center src='/static/experiments/go_nogo_deval/images/purple_triangle.png'></img>,32,850,test,purple_triangle,go2,32,24,3,,,,,,,-1,-1,1400,0,ITI,poldrack-single-stim,570,655869,0.0-6.3-75.3,go_nogo_deval,466,,<div></div>,32,1400,test,,,,,,,,,,,,-1,-1,500,0,fixation,poldrack-single-stim,571,656371,0.0-6.3-76.3,go_nogo_deval,466,,<div class = centerbox><div class = fixation>+</div></div>,none,500,test,,,,,,,,,,,