text,rt,key_press,block_duration,timing_post_trial,trial_id,trial_type,trial_index,time_elapsed,internal_node_id,exp_id,subject_ID,view_history,stimulus,possible_responses,stim_duration,exp_stage,stim,go_nogo_type,correct_response,current_trial,current_block,chosenStim,chosenCond,stimLeft,cond_left,stimRight,cond_right<div class = centerbox><p class = center-block-text>Welcome to the task!</p><p class = center-block-text>Press<strong> enter</strong> to continue.</p></div>,2066,13,2066,0,welcome,poldrack-text,0,2067,0.0-0.0,go_nogo_deval,467,,,,,,,,,,,,,,,,,56216,,,,instruction,poldrack-instructions,1,58284,0.0-1.0,go_nogo_deval,467,"[{""page_index"":0,""viewing_time"":4791},{""page_index"":1,""viewing_time"":51424}]",,,,,,,,,,,,,,,,18707,13,18707,0,stop_intro_phase1,poldrack-single-stim,2,77993,0.0-2.0,go_nogo_deval,467,,"<div class = centerbox><p class = block-text>We will now start the practice for the experiment.<br><br>For these trials, you must press the <strong>spacebar </strong> or have <strong>no response</strong> depending on the shape of the stimulus.  Make sure to respond as quickly and accurately as possible to the shape. <br><br> The responses for each shape are as follows: <ul list-text><li>triangle: spacebar</li><li>circle: spacebar</li><li>rhombus: no response</li><li>pentagon: no response</li></ul></p><p class = block-text>Remember these rules before you proceed.</p><p class = block-text>Press <strong> enter</strong> to begin.</p></div>",13,18707,,,,,,,,,,,,,3283,13,3283,0,practice-no-stop-feedback,poldrack-single-stim,3,81278,0.0-3.0-0.0,go_nogo_deval,467,,<div class = centerbox><p class = block-text>We will now start with a practice session. In this practice concentrate on responding quickly and accurately to each stimuli unless it requires no response.</p><p class = block-text>Press enter to continue.</p></div>,13,3283,,,,,,,,,,,,,-1,-1,500,0,prompt_fixation,poldrack-single-stim,4,81781,0.0-3.0-1.0,go_nogo_deval,467,,<div class = centerbox><div class = fixation>+</div></div>,none,500,practice,,,,,,,,,,,,542,32,850,0,stim,poldrack-single-stim,5,82633,0.0-3.0-2.0,go_nogo_deval,467,,<img class = center src='/static/experiments/go_nogo_deval/images/red_triangle.png'></img>,32,850,practice,red_triangle,go1,32,0,0,,,,,,,-1,-1,1400,0,ITI,poldrack-single-stim,6,84036,0.0-3.0-3.0,go_nogo_deval,467,,<div></div>,32,1400,practice,,,,,,,,,,,,-1,-1,500,0,prompt_fixation,poldrack-single-stim,7,84538,0.0-3.0-4.0,go_nogo_deval,467,,<div class = centerbox><div class = fixation>+</div></div>,none,500,practice,,,,,,,,,,,,406,32,850,0,stim,poldrack-single-stim,8,85390,0.0-3.0-5.0,go_nogo_deval,467,,<img class = center src='/static/experiments/go_nogo_deval/images/red_triangle.png'></img>,32,850,practice,red_triangle,go1,32,1,0,,,,,,,-1,-1,1400,0,ITI,poldrack-single-stim,9,86792,0.0-3.0-6.0,go_nogo_deval,467,,<div></div>,32,1400,practice,,,,,,,,,,,,-1,-1,500,0,prompt_fixation,poldrack-single-stim,10,87293,0.0-3.0-7.0,go_nogo_deval,467,,<div class = centerbox><div class = fixation>+</div></div>,none,500,practice,,,,,,,,,,,,331,32,850,0,stim,poldrack-single-stim,11,88145,0.0-3.0-8.0,go_nogo_deval,467,,<img class = center src='/static/experiments/go_nogo_deval/images/blue_circle.png'></img>,32,850,practice,blue_circle,go2,32,2,0,,,,,,,-1,-1,1400,0,ITI,poldrack-single-stim,12,89547,0.0-3.0-9.0,go_nogo_deval,467,,<div></div>,32,1400,practice,,,,,,,,,,,,-1,-1,500,0,prompt_fixation,poldrack-single-stim,13,90049,0.0-3.0-10.0,go_nogo_deval,467,,<div class = centerbox><div class = fixation>+</div></div>,none,500,practice,,,,,,,,,,,,-1,-1,850,0,stim,poldrack-single-stim,14,90901,0.0-3.0-11.0,go_nogo_deval,467,,<img class = center src='/static/experiments/go_nogo_deval/images/green_rhombus.png'></img>,32,850,practice,green_rhombus,nogo1,-1,3,0,,,,,,,-1,-1,1400,0,ITI,poldrack-single-stim,15,92303,0.0-3.0-12.0,go_nogo_deval,467,,<div></div>,32,1400,practice,,,,,,,,,,,,-1,-1,500,0,prompt_fixation,poldrack-single-stim,16,92804,0.0-3.0-13.0,go_nogo_deval,467,,<div class = centerbox><div class = fixation>+</div></div>,none,500,practice,,,,,,,,,,,,566,32,850,0,stim,poldrack-single-stim,17,93656,0.0-3.0-14.0,go_nogo_deval,467,,<img class = center src='/static/experiments/go_nogo_deval/images/blue_circle.png'></img>,32,850,practice,blue_circle,go2,32,4,0,,,,,,,-1,-1,1400,0,ITI,poldrack-single-stim,18,95058,0.0-3.0-15.0,go_nogo_deval,467,,<div></div>,32,1400,practice,,,,,,,,,,,,-1,-1,500,0,prompt_fixation,poldrack-single-stim,19,95560,0.0-3.0-16.0,go_nogo_deval,467,,<div class = centerbox><div class = fixation>+</div></div>,none,500,practice,,,,,,,,,,,,387,32,850,0,stim,poldrack-single-stim,20,96411,0.0-3.0-17.0,go_nogo_deval,467,,<img class = center src='/static/experiments/go_nogo_deval/images/blue_circle.png'></img>,32,850,practice,blue_circle,go2,32,5,0,,,,,,,-1,-1,1400,0,ITI,poldrack-single-stim,21,97813,0.0-3.0-18.0,go_nogo_deval,467,,<div></div>,32,1400,practice,,,,,,,,,,,,-1,-1,500,0,prompt_fixation,poldrack-single-stim,22,98316,0.0-3.0-19.0,go_nogo_deval,467,,<div class = centerbox><div class = fixation>+</div></div>,none,500,practice,,,,,,,,,,,,308,32,850,0,stim,poldrack-single-stim,23,99169,0.0-3.0-20.0,go_nogo_deval,467,,<img class = center src='/static/experiments/go_nogo_deval/images/red_triangle.png'></img>,32,850,practice,red_triangle,go1,32,6,0,,,,,,,-1,-1,1400,0,ITI,poldrack-single-stim,24,100571,0.0-3.0-21.0,go_nogo_deval,467,,<div></div>,32,1400,practice,,,,,,,,,,,,-1,-1,500,0,prompt_fixation,poldrack-single-stim,25,101073,0.0-3.0-22.0,go_nogo_deval,467,,<div class = centerbox><div class = fixation>+</div></div>,none,500,practice,,,,,,,,,,,,375,32,850,0,stim,poldrack-single-stim,26,101925,0.0-3.0-23.0,go_nogo_deval,467,,<img class = center src='/static/experiments/go_nogo_deval/images/red_triangle.png'></img>,32,850,practice,red_triangle,go1,32,7,0,,,,,,,-1,-1,1400,0,ITI,poldrack-single-stim,27,103325,0.0-3.0-24.0,go_nogo_deval,467,,<div></div>,32,1400,practice,,,,,,,,,,,,-1,-1,500,0,prompt_fixation,poldrack-single-stim,28,103827,0.0-3.0-25.0,go_nogo_deval,467,,<div class = centerbox><div class = fixation>+</div></div>,none,500,practice,,,,,,,,,,,,400,32,850,0,stim,poldrack-single-stim,29,104677,0.0-3.0-26.0,go_nogo_deval,467,,<img class = center src='/static/experiments/go_nogo_deval/images/red_triangle.png'></img>,32,850,practice,red_triangle,go1,32,8,0,,,,,,,-1,-1,1400,0,ITI,poldrack-single-stim,30,106079,0.0-3.0-27.0,go_nogo_deval,467,,<div></div>,32,1400,practice,,,,,,,,,,,,-1,-1,500,0,prompt_fixation,poldrack-single-stim,31,106581,0.0-3.0-28.0,go_nogo_deval,467,,<div class = centerbox><div class = fixation>+</div></div>,none,500,practice,,,,,,,,,,,,311,32,850,0,stim,poldrack-single-stim,32,107433,0.0-3.0-29.0,go_nogo_deval,467,,<img class = center src='/static/experiments/go_nogo_deval/images/blue_circle.png'></img>,32,850,practice,blue_circle,go2,32,9,0,,,,,,,-1,-1,1400,0,ITI,poldrack-single-stim,33,108835,0.0-3.0-30.0,go_nogo_deval,467,,<div></div>,32,1400,practice,,,,,,,,,,,,-1,-1,500,0,prompt_fixation,poldrack-single-stim,34,109337,0.0-3.0-31.0,go_nogo_deval,467,,<div class = centerbox><div class = fixation>+</div></div>,none,500,practice,,,,,,,,,,,,-1,-1,850,0,stim,poldrack-single-stim,35,110189,0.0-3.0-32.0,go_nogo_deval,467,,<img class = center src='/static/experiments/go_nogo_deval/images/purple_pentagon.png'></img>,32,850,practice,purple_pentagon,nogo2,-1,10,0,,,,,,,-1,-1,1400,0,ITI,poldrack-single-stim,36,111591,0.0-3.0-33.0,go_nogo_deval,467,,<div></div>,32,1400,practice,,,,,,,,,,,,-1,-1,500,0,prompt_fixation,poldrack-single-stim,37,112092,0.0-3.0-34.0,go_nogo_deval,467,,<div class = centerbox><div class = fixation>+</div></div>,none,500,practice,,,,,,,,,,,,-1,-1,850,0,stim,poldrack-single-stim,38,112943,0.0-3.0-35.0,go_nogo_deval,467,,<img class = center src='/static/experiments/go_nogo_deval/images/purple_pentagon.png'></img>,32,850,practice,purple_pentagon,nogo2,-1,11,0,,,,,,,-1,-1,1400,0,ITI,poldrack-single-stim,39,114345,0.0-3.0-36.0,go_nogo_deval,467,,<div></div>,32,1400,practice,,,,,,,,,,,,-1,-1,500,0,prompt_fixation,poldrack-single-stim,40,114847,0.0-3.0-37.0,go_nogo_deval,467,,<div class = centerbox><div class = fixation>+</div></div>,none,500,practice,,,,,,,,,,,,383,32,850,0,stim,poldrack-single-stim,41,115699,0.0-3.0-38.0,go_nogo_deval,467,,<img class = center src='/static/experiments/go_nogo_deval/images/blue_circle.png'></img>,32,850,practice,blue_circle,go2,32,12,0,,,,,,,-1,-1,1400,0,ITI,poldrack-single-stim,42,117101,0.0-3.0-39.0,go_nogo_deval,467,,<div></div>,32,1400,practice,,,,,,,,,,,,-1,-1,500,0,prompt_fixation,poldrack-single-stim,43,117603,0.0-3.0-40.0,go_nogo_deval,467,,<div class = centerbox><div class = fixation>+</div></div>,none,500,practice,,,,,,,,,,,,315,32,850,0,stim,poldrack-single-stim,44,118455,0.0-3.0-41.0,go_nogo_deval,467,,<img class = center src='/static/experiments/go_nogo_deval/images/red_triangle.png'></img>,32,850,practice,red_triangle,go1,32,13,0,,,,,,,-1,-1,1400,0,ITI,poldrack-single-stim,45,119857,0.0-3.0-42.0,go_nogo_deval,467,,<div></div>,32,1400,practice,,,,,,,,,,,,-1,-1,500,0,prompt_fixation,poldrack-single-stim,46,120359,0.0-3.0-43.0,go_nogo_deval,467,,<div class = centerbox><div class = fixation>+</div></div>,none,500,practice,,,,,,,,,,,,-1,-1,850,0,stim,poldrack-single-stim,47,121211,0.0-3.0-44.0,go_nogo_deval,467,,<img class = center src='/static/experiments/go_nogo_deval/images/green_rhombus.png'></img>,32,850,practice,green_rhombus,nogo1,-1,14,0,,,,,,,-1,-1,1400,0,ITI,poldrack-single-stim,48,122613,0.0-3.0-45.0,go_nogo_deval,467,,<div></div>,32,1400,practice,,,,,,,,,,,,-1,-1,500,0,prompt_fixation,poldrack-single-stim,49,123115,0.0-3.0-46.0,go_nogo_deval,467,,<div class = centerbox><div class = fixation>+</div></div>,none,500,practice,,,,,,,,,,,,-1,-1,850,0,stim,poldrack-single-stim,50,123967,0.0-3.0-47.0,go_nogo_deval,467,,<img class = center src='/static/experiments/go_nogo_deval/images/purple_pentagon.png'></img>,32,850,practice,purple_pentagon,nogo2,-1,15,0,,,,,,,-1,-1,1400,0,ITI,poldrack-single-stim,51,125369,0.0-3.0-48.0,go_nogo_deval,467,,<div></div>,32,1400,practice,,,,,,,,,,,,-1,-1,500,0,prompt_fixation,poldrack-single-stim,52,125870,0.0-3.0-49.0,go_nogo_deval,467,,<div class = centerbox><div class = fixation>+</div></div>,none,500,practice,,,,,,,,,,,,361,32,850,0,stim,poldrack-single-stim,53,126723,0.0-3.0-50.0,go_nogo_deval,467,,<img class = center src='/static/experiments/go_nogo_deval/images/blue_circle.png'></img>,32,850,practice,blue_circle,go2,32,16,0,,,,,,,-1,-1,1400,0,ITI,poldrack-single-stim,54,128124,0.0-3.0-51.0,go_nogo_deval,467,,<div></div>,32,1400,practice,,,,,,,,,,,,-1,-1,500,0,prompt_fixation,poldrack-single-stim,55,128626,0.0-3.0-52.0,go_nogo_deval,467,,<div class = centerbox><div class = fixation>+</div></div>,none,500,practice,,,,,,,,,,,,-1,-1,850,0,stim,poldrack-single-stim,56,129478,0.0-3.0-53.0,go_nogo_deval,467,,<img class = center src='/static/experiments/go_nogo_deval/images/green_rhombus.png'></img>,32,850,practice,green_rhombus,nogo1,-1,17,0,,,,,,,-1,-1,1400,0,ITI,poldrack-single-stim,57,130880,0.0-3.0-54.0,go_nogo_deval,467,,<div></div>,32,1400,practice,,,,,,,,,,,,2584,13,2584,0,practice-no-stop-feedback,poldrack-single-stim,58,133466,0.0-4.0,go_nogo_deval,467,,<div class = centerbox><p class = block-text><br>Please take this time to read your feedback and to take a short break! Press enter to continue</p><p class = block-text><strong>Average reaction time:  390 ms. Accuracy: 100%</strong></p><p class = block-text>Done with this practice.</p></div>,13,2584,,,,,,,,,,,,,34110,13,34110,0,main_stop_intro_phase3,poldrack-single-stim,59,167577,0.0-5.0,go_nogo_deval,467,,"<div class = centerbox><p class = block-text>We will now start the main phase of the experiment.<br><br>These trials are the same as the trials that you have just completed. <br><br>The rules for each shape are as follows:  <br><ul list-text><li>triangle: spacebar</li><li>circle: spacebar</li><li>rhombus: no response</li><li>pentagon: no response</li></ul></p><p class = block-text>Remember these rules before you proceed, as they will no longer be presented during the trial.</p><p class = block-text>Press <strong> enter</strong> to begin.</p></div>",13,34110,,,,,,,,,,,,,1608,13,1608,0,practice-no-stop-feedback,poldrack-single-stim,60,169185,0.0-6.0-0.0,go_nogo_deval,467,,"<div class = centerbox><p class = block-text>We will now start with a test session. In this test, concentrate on responding quickly and accurately to each stimuli unless it requires no response.</p><p class = block-text>Press enter to continue.</p></div>",13,1608,,,,,,,,,,,,,-1,-1,500,0,fixation,poldrack-single-stim,61,169687,0.0-6.0-1.0,go_nogo_deval,467,,<div class = centerbox><div class = fixation>+</div></div>,none,500,test,,,,,,,,,,,,408,32,850,0,stim,poldrack-single-stim,62,170538,0.0-6.0-2.0,go_nogo_deval,467,,<img class = center src='/static/experiments/go_nogo_deval/images/green_rhombus.png'></img>,32,850,test,green_rhombus,nogo1,-1,0,0,,,,,,,-1,-1,1400,0,ITI,poldrack-single-stim,63,171940,0.0-6.0-3.0,go_nogo_deval,467,,<div></div>,32,1400,test,,,,,,,,,,,,-1,-1,500,0,fixation,poldrack-single-stim,64,172442,0.0-6.0-4.0,go_nogo_deval,467,,<div class = centerbox><div class = fixation>+</div></div>,none,500,test,,,,,,,,,,,,-1,-1,850,0,stim,poldrack-single-stim,65,173294,0.0-6.0-5.0,go_nogo_deval,467,,<img class = center src='/static/experiments/go_nogo_deval/images/green_rhombus.png'></img>,32,850,test,green_rhombus,nogo1,-1,1,0,,,,,,,-1,-1,1400,0,ITI,poldrack-single-stim,66,174695,0.0-6.0-6.0,go_nogo_deval,467,,<div></div>,32,1400,test,,,,,,,,,,,,-1,-1,500,0,fixation,poldrack-single-stim,67,175196,0.0-6.0-7.0,go_nogo_deval,467,,<div class = centerbox><div class = fixation>+</div></div>,none,500,test,,,,,,,,,,,,378,32,850,0,stim,poldrack-single-stim,68,176047,0.0-6.0-8.0,go_nogo_deval,467,,<img class = center src='/static/experiments/go_nogo_deval/images/red_triangle.png'></img>,32,850,test,red_triangle,go1,32,2,0,,,,,,,-1,-1,1400,0,ITI,poldrack-single-stim,69,177448,0.0-6.0-9.0,go_nogo_deval,467,,<div></div>,32,1400,test,,,,,,,,,,,,-1,-1,500,0,fixation,poldrack-single-stim,70,177949,0.0-6.0-10.0,go_nogo_deval,467,,<div class = centerbox><div class = fixation>+</div></div>,none,500,test,,,,,,,,,,,,-1,-1,850,0,stim,poldrack-single-stim,71,178801,0.0-6.0-11.0,go_nogo_deval,467,,<img class = center src='/static/experiments/go_nogo_deval/images/purple_pentagon.png'></img>,32,850,test,purple_pentagon,nogo2,-1,3,0,,,,,,,-1,-1,1400,0,ITI,poldrack-single-stim,72,180203,0.0-6.0-12.0,go_nogo_deval,467,,<div></div>,32,1400,test,,,,,,,,,,,,-1,-1,500,0,fixation,poldrack-single-stim,73,180704,0.0-6.0-13.0,go_nogo_deval,467,,<div class = centerbox><div class = fixation>+</div></div>,none,500,test,,,,,,,,,,,,405,32,850,0,stim,poldrack-single-stim,74,181557,0.0-6.0-14.0,go_nogo_deval,467,,<img class = center src='/static/experiments/go_nogo_deval/images/red_triangle.png'></img>,32,850,test,red_triangle,go1,32,4,0,,,,,,,-1,-1,1400,0,ITI,poldrack-single-stim,75,182959,0.0-6.0-15.0,go_nogo_deval,467,,<div></div>,32,1400,test,,,,,,,,,,,,-1,-1,500,0,fixation,poldrack-single-stim,76,183461,0.0-6.0-16.0,go_nogo_deval,467,,<div class = centerbox><div class = fixation>+</div></div>,none,500,test,,,,,,,,,,,,417,32,850,0,stim,poldrack-single-stim,77,184312,0.0-6.0-17.0,go_nogo_deval,467,,<img class = center src='/static/experiments/go_nogo_deval/images/red_triangle.png'></img>,32,850,test,red_triangle,go1,32,5,0,,,,,,,-1,-1,1400,0,ITI,poldrack-single-stim,78,185714,0.0-6.0-18.0,go_nogo_deval,467,,<div></div>,32,1400,test,,,,,,,,,,,,-1,-1,500,0,fixation,poldrack-single-stim,79,186215,0.0-6.0-19.0,go_nogo_deval,467,,<div class = centerbox><div class = fixation>+</div></div>,none,500,test,,,,,,,,,,,,453,32,850,0,stim,poldrack-single-stim,80,187066,0.0-6.0-20.0,go_nogo_deval,467,,<img class = center src='/static/experiments/go_nogo_deval/images/blue_circle.png'></img>,32,850,test,blue_circle,go2,32,6,0,,,,,,,-1,-1,1400,0,ITI,poldrack-single-stim,81,188468,0.0-6.0-21.0,go_nogo_deval,467,,<div></div>,32,1400,test,,,,,,,,,,,,-1,-1,500,0,fixation,poldrack-single-stim,82,188970,0.0-6.0-22.0,go_nogo_deval,467,,<div class = centerbox><div class = fixation>+</div></div>,none,500,test,,,,,,,,,,,,420,32,850,0,stim,poldrack-single-stim,83,189821,0.0-6.0-23.0,go_nogo_deval,467,,<img class = center src='/static/experiments/go_nogo_deval/images/blue_circle.png'></img>,32,850,test,blue_circle,go2,32,7,0,,,,,,,-1,-1,1400,0,ITI,poldrack-single-stim,84,191222,0.0-6.0-24.0,go_nogo_deval,467,,<div></div>,32,1400,test,,,,,,,,,,,,-1,-1,500,0,fixation,poldrack-single-stim,85,191724,0.0-6.0-25.0,go_nogo_deval,467,,<div class = centerbox><div class = fixation>+</div></div>,none,500,test,,,,,,,,,,,,614,32,850,0,stim,poldrack-single-stim,86,192576,0.0-6.0-26.0,go_nogo_deval,467,,<img class = center src='/static/experiments/go_nogo_deval/images/red_triangle.png'></img>,32,850,test,red_triangle,go1,32,8,0,,,,,,,-1,-1,1400,0,ITI,poldrack-single-stim,87,193977,0.0-6.0-27.0,go_nogo_deval,467,,<div></div>,32,1400,test,,,,,,,,,,,,-1,-1,500,0,fixation,poldrack-single-stim,88,194479,0.0-6.0-28.0,go_nogo_deval,467,,<div class = centerbox><div class = fixation>+</div></div>,none,500,test,,,,,,,,,,,,379,32,850,0,stim,poldrack-single-stim,89,195330,0.0-6.0-29.0,go_nogo_deval,467,,<img class = center src='/static/experiments/go_nogo_deval/images/red_triangle.png'></img>,32,850,test,red_triangle,go1,32,9,0,,,,,,,-1,-1,1400,0,ITI,poldrack-single-stim,90,196731,0.0-6.0-30.0,go_nogo_deval,467,,<div></div>,32,1400,test,,,,,,,,,,,,-1,-1,500,0,fixation,poldrack-single-stim,91,197233,0.0-6.0-31.0,go_nogo_deval,467,,<div class = centerbox><div class = fixation>+</div></div>,none,500,test,,,,,,,,,,,,448,32,850,0,stim,poldrack-single-stim,92,198085,0.0-6.0-32.0,go_nogo_deval,467,,<img class = center src='/static/experiments/go_nogo_deval/images/blue_circle.png'></img>,32,850,test,blue_circle,go2,32,10,0,,,,,,,-1,-1,1400,0,ITI,poldrack-single-stim,93,199486,0.0-6.0-33.0,go_nogo_deval,467,,<div></div>,32,1400,test,,,,,,,,,,,,-1,-1,500,0,fixation,poldrack-single-stim,94,199988,0.0-6.0-34.0,go_nogo_deval,467,,<div class = centerbox><div class = fixation>+</div></div>,none,500,test,,,,,,,,,,,,349,32,850,0,stim,poldrack-single-stim,95,200839,0.0-6.0-35.0,go_nogo_deval,467,,<img class = center src='/static/experiments/go_nogo_deval/images/blue_circle.png'></img>,32,850,test,blue_circle,go2,32,11,0,,,,,,,-1,-1,1400,0,ITI,poldrack-single-stim,96,202241,0.0-6.0-36.0,go_nogo_deval,467,,<div></div>,32,1400,test,,,,,,,,,,,,-1,-1,500,0,fixation,poldrack-single-stim,97,202742,0.0-6.0-37.0,go_nogo_deval,467,,<div class = centerbox><div class = fixation>+</div></div>,none,500,test,,,,,,,,,,,,385,32,850,0,stim,poldrack-single-stim,98,203594,0.0-6.0-38.0,go_nogo_deval,467,,<img class = center src='/static/experiments/go_nogo_deval/images/blue_circle.png'></img>,32,850,test,blue_circle,go2,32,12,0,,,,,,,-1,-1,1400,0,ITI,poldrack-single-stim,99,204995,0.0-6.0-39.0,go_nogo_deval,467,,<div></div>,32,1400,test,,,,,,,,,,,,-1,-1,500,0,fixation,poldrack-single-stim,100,205496,0.0-6.0-40.0,go_nogo_deval,467,,<div class = centerbox><div class = fixation>+</div></div>,none,500,test,,,,,,,,,,,,-1,-1,850,0,stim,poldrack-single-stim,101,206347,0.0-6.0-41.0,go_nogo_deval,467,,<img class = center src='/static/experiments/go_nogo_deval/images/green_rhombus.png'></img>,32,850,test,green_rhombus,nogo1,-1,13,0,,,,,,,-1,-1,1400,0,ITI,poldrack-single-stim,102,207749,0.0-6.0-42.0,go_nogo_deval,467,,<div></div>,32,1400,test,,,,,,,,,,,,-1,-1,500,0,fixation,poldrack-single-stim,103,208251,0.0-6.0-43.0,go_nogo_deval,467,,<div class = centerbox><div class = fixation>+</div></div>,none,500,test,,,,,,,,,,,,-1,-1,850,0,stim,poldrack-single-stim,104,209103,0.0-6.0-44.0,go_nogo_deval,467,,<img class = center src='/static/experiments/go_nogo_deval/images/purple_pentagon.png'></img>,32,850,test,purple_pentagon,nogo2,-1,14,0,,,,,,,-1,-1,1400,0,ITI,poldrack-single-stim,105,210504,0.0-6.0-45.0,go_nogo_deval,467,,<div></div>,32,1400,test,,,,,,,,,,,,-1,-1,500,0,fixation,poldrack-single-stim,106,211006,0.0-6.0-46.0,go_nogo_deval,467,,<div class = centerbox><div class = fixation>+</div></div>,none,500,test,,,,,,,,,,,,457,32,850,0,stim,poldrack-single-stim,107,211856,0.0-6.0-47.0,go_nogo_deval,467,,<img class = center src='/static/experiments/go_nogo_deval/images/blue_circle.png'></img>,32,850,test,blue_circle,go2,32,15,0,,,,,,,-1,-1,1400,0,ITI,poldrack-single-stim,108,213259,0.0-6.0-48.0,go_nogo_deval,467,,<div></div>,32,1400,test,,,,,,,,,,,,-1,-1,500,0,fixation,poldrack-single-stim,109,213760,0.0-6.0-49.0,go_nogo_deval,467,,<div class = centerbox><div class = fixation>+</div></div>,none,500,test,,,,,,,,,,,,381,32,850,0,stim,poldrack-single-stim,110,214612,0.0-6.0-50.0,go_nogo_deval,467,,<img class = center src='/static/experiments/go_nogo_deval/images/blue_circle.png'></img>,32,850,test,blue_circle,go2,32,16,0,,,,,,,-1,-1,1400,0,ITI,poldrack-single-stim,111,216014,0.0-6.0-51.0,go_nogo_deval,467,,<div></div>,32,1400,test,,,,,,,,,,,,-1,-1,500,0,fixation,poldrack-single-stim,112,216516,0.0-6.0-52.0,go_nogo_deval,467,,<div class = centerbox><div class = fixation>+</div></div>,none,500,test,,,,,,,,,,,,-1,-1,850,0,stim,poldrack-single-stim,113,217368,0.0-6.0-53.0,go_nogo_deval,467,,<img class = center src='/static/experiments/go_nogo_deval/images/purple_pentagon.png'></img>,32,850,test,purple_pentagon,nogo2,-1,17,0,,,,,,,-1,-1,1400,0,ITI,poldrack-single-stim,114,218769,0.0-6.0-54.0,go_nogo_deval,467,,<div></div>,32,1400,test,,,,,,,,,,,,-1,-1,500,0,fixation,poldrack-single-stim,115,219271,0.0-6.0-55.0,go_nogo_deval,467,,<div class = centerbox><div class = fixation>+</div></div>,none,500,test,,,,,,,,,,,,416,32,850,0,stim,poldrack-single-stim,116,220122,0.0-6.0-56.0,go_nogo_deval,467,,<img class = center src='/static/experiments/go_nogo_deval/images/red_triangle.png'></img>,32,850,test,red_triangle,go1,32,18,0,,,,,,,-1,-1,1400,0,ITI,poldrack-single-stim,117,221524,0.0-6.0-57.0,go_nogo_deval,467,,<div></div>,32,1400,test,,,,,,,,,,,,-1,-1,500,0,fixation,poldrack-single-stim,118,222026,0.0-6.0-58.0,go_nogo_deval,467,,<div class = centerbox><div class = fixation>+</div></div>,none,500,test,,,,,,,,,,,,406,32,850,0,stim,poldrack-single-stim,119,222877,0.0-6.0-59.0,go_nogo_deval,467,,<img class = center src='/static/experiments/go_nogo_deval/images/red_triangle.png'></img>,32,850,test,red_triangle,go1,32,19,0,,,,,,,-1,-1,1400,0,ITI,poldrack-single-stim,120,224278,0.0-6.0-60.0,go_nogo_deval,467,,<div></div>,32,1400,test,,,,,,,,,,,,-1,-1,500,0,fixation,poldrack-single-stim,121,224780,0.0-6.0-61.0,go_nogo_deval,467,,<div class = centerbox><div class = fixation>+</div></div>,none,500,test,,,,,,,,,,,,-1,-1,850,0,stim,poldrack-single-stim,122,225631,0.0-6.0-62.0,go_nogo_deval,467,,<img class = center src='/static/experiments/go_nogo_deval/images/purple_pentagon.png'></img>,32,850,test,purple_pentagon,nogo2,-1,20,0,,,,,,,-1,-1,1400,0,ITI,poldrack-single-stim,123,227033,0.0-6.0-63.0,go_nogo_deval,467,,<div></div>,32,1400,test,,,,,,,,,,,,-1,-1,500,0,fixation,poldrack-single-stim,124,227535,0.0-6.0-64.0,go_nogo_deval,467,,<div class = centerbox><div class = fixation>+</div></div>,none,500,test,,,,,,,,,,,,421,32,850,0,stim,poldrack-single-stim,125,228386,0.0-6.0-65.0,go_nogo_deval,467,,<img class = center src='/static/experiments/go_nogo_deval/images/blue_circle.png'></img>,32,850,test,blue_circle,go2,32,21,0,,,,,,,-1,-1,1400,0,ITI,poldrack-single-stim,126,229788,0.0-6.0-66.0,go_nogo_deval,467,,<div></div>,32,1400,test,,,,,,,,,,,,-1,-1,500,0,fixation,poldrack-single-stim,127,230290,0.0-6.0-67.0,go_nogo_deval,467,,<div class = centerbox><div class = fixation>+</div></div>,none,500,test,,,,,,,,,,,,388,32,850,0,stim,poldrack-single-stim,128,231142,0.0-6.0-68.0,go_nogo_deval,467,,<img class = center src='/static/experiments/go_nogo_deval/images/blue_circle.png'></img>,32,850,test,blue_circle,go2,32,22,0,,,,,,,-1,-1,1400,0,ITI,poldrack-single-stim,129,232544,0.0-6.0-69.0,go_nogo_deval,467,,<div></div>,32,1400,test,,,,,,,,,,,,-1,-1,500,0,fixation,poldrack-single-stim,130,233045,0.0-6.0-70.0,go_nogo_deval,467,,<div class = centerbox><div class = fixation>+</div></div>,none,500,test,,,,,,,,,,,,400,32,850,0,stim,poldrack-single-stim,131,233897,0.0-6.0-71.0,go_nogo_deval,467,,<img class = center src='/static/experiments/go_nogo_deval/images/red_triangle.png'></img>,32,850,test,red_triangle,go1,32,23,0,,,,,,,-1,-1,1400,0,ITI,poldrack-single-stim,132,235300,0.0-6.0-72.0,go_nogo_deval,467,,<div></div>,32,1400,test,,,,,,,,,,,,-1,-1,500,0,fixation,poldrack-single-stim,133,235801,0.0-6.0-73.0,go_nogo_deval,467,,<div class = centerbox><div class = fixation>+</div></div>,none,500,test,,,,,,,,,,,,446,32,850,0,stim,poldrack-single-stim,134,236653,0.0-6.0-74.0,go_nogo_deval,467,,<img class = center src='/static/experiments/go_nogo_deval/images/red_triangle.png'></img>,32,850,test,red_triangle,go1,32,24,0,,,,,,,-1,-1,1400,0,ITI,poldrack-single-stim,135,238055,0.0-6.0-75.0,go_nogo_deval,467,,<div></div>,32,1400,test,,,,,,,,,,,,-1,-1,500,0,fixation,poldrack-single-stim,136,238557,0.0-6.0-76.0,go_nogo_deval,467,,<div class = centerbox><div class = fixation>+</div></div>,none,500,test,,,,,,,,,,,,390,32,850,0,stim,poldrack-single-stim,137,239409,0.0-6.0-77.0,go_nogo_deval,467,,<img class = center src='/static/experiments/go_nogo_deval/images/red_triangle.png'></img>,32,850,test,red_triangle,go1,32,25,0,,,,,,,-1,-1,1400,0,ITI,poldrack-single-stim,138,240810,0.0-6.0-78.0,go_nogo_deval,467,,<div></div>,32,1400,test,,,,,,,,,,,,-1,-1,500,0,fixation,poldrack-single-stim,139,241312,0.0-6.0-79.0,go_nogo_deval,467,,<div class = centerbox><div class = fixation>+</div></div>,none,500,test,,,,,,,,,,,,413,32,850,0,stim,poldrack-single-stim,140,242164,0.0-6.0-80.0,go_nogo_deval,467,,<img class = center src='/static/experiments/go_nogo_deval/images/blue_circle.png'></img>,32,850,test,blue_circle,go2,32,26,0,,,,,,,-1,-1,1400,0,ITI,poldrack-single-stim,141,243565,0.0-6.0-81.0,go_nogo_deval,467,,<div></div>,32,1400,test,,,,,,,,,,,,-1,-1,500,0,fixation,poldrack-single-stim,142,244066,0.0-6.0-82.0,go_nogo_deval,467,,<div class = centerbox><div class = fixation>+</div></div>,none,500,test,,,,,,,,,,,,-1,-1,850,0,stim,poldrack-single-stim,143,244917,0.0-6.0-83.0,go_nogo_deval,467,,<img class = center src='/static/experiments/go_nogo_deval/images/green_rhombus.png'></img>,32,850,test,green_rhombus,nogo1,-1,27,0,,,,,,,-1,-1,1400,0,ITI,poldrack-single-stim,144,246319,0.0-6.0-84.0,go_nogo_deval,467,,<div></div>,32,1400,test,,,,,,,,,,,,-1,-1,500,0,fixation,poldrack-single-stim,145,246821,0.0-6.0-85.0,go_nogo_deval,467,,<div class = centerbox><div class = fixation>+</div></div>,none,500,test,,,,,,,,,,,,-1,-1,850,0,stim,poldrack-single-stim,146,247673,0.0-6.0-86.0,go_nogo_deval,467,,<img class = center src='/static/experiments/go_nogo_deval/images/green_rhombus.png'></img>,32,850,test,green_rhombus,nogo1,-1,28,0,,,,,,,-1,-1,1400,0,ITI,poldrack-single-stim,147,249074,0.0-6.0-87.0,go_nogo_deval,467,,<div></div>,32,1400,test,,,,,,,,,,,,-1,-1,500,0,fixation,poldrack-single-stim,148,249575,0.0-6.0-88.0,go_nogo_deval,467,,<div class = centerbox><div class = fixation>+</div></div>,none,500,test,,,,,,,,,,,,-1,-1,850,0,stim,poldrack-single-stim,149,250427,0.0-6.0-89.0,go_nogo_deval,467,,<img class = center src='/static/experiments/go_nogo_deval/images/green_rhombus.png'></img>,32,850,test,green_rhombus,nogo1,-1,29,0,,,,,,,-1,-1,1400,0,ITI,poldrack-single-stim,150,251829,0.0-6.0-90.0,go_nogo_deval,467,,<div></div>,32,1400,test,,,,,,,,,,,,-1,-1,500,0,fixation,poldrack-single-stim,151,252330,0.0-6.0-91.0,go_nogo_deval,467,,<div class = centerbox><div class = fixation>+</div></div>,none,500,test,,,,,,,,,,,,421,32,850,0,stim,poldrack-single-stim,152,253182,0.0-6.0-92.0,go_nogo_deval,467,,<img class = center src='/static/experiments/go_nogo_deval/images/red_triangle.png'></img>,32,850,test,red_triangle,go1,32,30,0,,,,,,,-1,-1,1400,0,ITI,poldrack-single-stim,153,254583,0.0-6.0-93.0,go_nogo_deval,467,,<div></div>,32,1400,test,,,,,,,,,,,,-1,-1,500,0,fixation,poldrack-single-stim,154,255084,0.0-6.0-94.0,go_nogo_deval,467,,<div class = centerbox><div class = fixation>+</div></div>,none,500,test,,,,,,,,,,,,355,32,850,0,stim,poldrack-single-stim,155,255936,0.0-6.0-95.0,go_nogo_deval,467,,<img class = center src='/static/experiments/go_nogo_deval/images/blue_circle.png'></img>,32,850,test,blue_circle,go2,32,31,0,,,,,,,-1,-1,1400,0,ITI,poldrack-single-stim,156,257337,0.0-6.0-96.0,go_nogo_deval,467,,<div></div>,32,1400,test,,,,,,,,,,,,-1,-1,500,0,fixation,poldrack-single-stim,157,257839,0.0-6.0-97.0,go_nogo_deval,467,,<div class = centerbox><div class = fixation>+</div></div>,none,500,test,,,,,,,,,,,,481,32,850,0,stim,poldrack-single-stim,158,258691,0.0-6.0-98.0,go_nogo_deval,467,,<img class = center src='/static/experiments/go_nogo_deval/images/green_rhombus.png'></img>,32,850,test,green_rhombus,nogo1,-1,32,0,,,,,,,-1,-1,1400,0,ITI,poldrack-single-stim,159,260092,0.0-6.0-99.0,go_nogo_deval,467,,<div></div>,32,1400,test,,,,,,,,,,,,-1,-1,500,0,fixation,poldrack-single-stim,160,260594,0.0-6.0-100.0,go_nogo_deval,467,,<div class = centerbox><div class = fixation>+</div></div>,none,500,test,,,,,,,,,,,,-1,-1,850,0,stim,poldrack-single-stim,161,261446,0.0-6.0-101.0,go_nogo_deval,467,,<img class = center src='/static/experiments/go_nogo_deval/images/green_rhombus.png'></img>,32,850,test,green_rhombus,nogo1,-1,33,0,,,,,,,-1,-1,1400,0,ITI,poldrack-single-stim,162,262847,0.0-6.0-102.0,go_nogo_deval,467,,<div></div>,32,1400,test,,,,,,,,,,,,-1,-1,500,0,fixation,poldrack-single-stim,163,263348,0.0-6.0-103.0,go_nogo_deval,467,,<div class = centerbox><div class = fixation>+</div></div>,none,500,test,,,,,,,,,,,,596,32,850,0,stim,poldrack-single-stim,164,264200,0.0-6.0-104.0,go_nogo_deval,467,,<img class = center src='/static/experiments/go_nogo_deval/images/red_triangle.png'></img>,32,850,test,red_triangle,go1,32,34,0,,,,,,,-1,-1,1400,0,ITI,poldrack-single-stim,165,265602,0.0-6.0-105.0,go_nogo_deval,467,,<div></div>,32,1400,test,,,,,,,,,,,,-1,-1,500,0,fixation,poldrack-single-stim,166,266104,0.0-6.0-106.0,go_nogo_deval,467,,<div class = centerbox><div class = fixation>+</div></div>,none,500,test,,,,,,,,,,,,428,32,850,0,stim,poldrack-single-stim,167,266955,0.0-6.0-107.0,go_nogo_deval,467,,<img class = center src='/static/experiments/go_nogo_deval/images/blue_circle.png'></img>,32,850,test,blue_circle,go2,32,35,0,,,,,,,-1,-1,1400,0,ITI,poldrack-single-stim,168,268356,0.0-6.0-108.0,go_nogo_deval,467,,<div></div>,32,1400,test,,,,,,,,,,,,-1,-1,500,0,fixation,poldrack-single-stim,169,268858,0.0-6.0-109.0,go_nogo_deval,467,,<div class = centerbox><div class = fixation>+</div></div>,none,500,test,,,,,,,,,,,,-1,-1,850,0,stim,poldrack-single-stim,170,269710,0.0-6.0-110.0,go_nogo_deval,467,,<img class = center src='/static/experiments/go_nogo_deval/images/purple_pentagon.png'></img>,32,850,test,purple_pentagon,nogo2,-1,36,0,,,,,,,-1,-1,1400,0,ITI,poldrack-single-stim,171,271111,0.0-6.0-111.0,go_nogo_deval,467,,<div></div>,32,1400,test,,,,,,,,,,,,-1,-1,500,0,fixation,poldrack-single-stim,172,271613,0.0-6.0-112.0,go_nogo_deval,467,,<div class = centerbox><div class = fixation>+</div></div>,none,500,test,,,,,,,,,,,,477,32,850,0,stim,poldrack-single-stim,173,272464,0.0-6.0-113.0,go_nogo_deval,467,,<img class = center src='/static/experiments/go_nogo_deval/images/red_triangle.png'></img>,32,850,test,red_triangle,go1,32,37,0,,,,,,,-1,-1,1400,0,ITI,poldrack-single-stim,174,273865,0.0-6.0-114.0,go_nogo_deval,467,,<div></div>,32,1400,test,,,,,,,,,,,,-1,-1,500,0,fixation,poldrack-single-stim,175,274367,0.0-6.0-115.0,go_nogo_deval,467,,<div class = centerbox><div class = fixation>+</div></div>,none,500,test,,,,,,,,,,,,502,32,850,0,stim,poldrack-single-stim,176,275219,0.0-6.0-116.0,go_nogo_deval,467,,<img class = center src='/static/experiments/go_nogo_deval/images/red_triangle.png'></img>,32,850,test,red_triangle,go1,32,38,0,,,,,,,-1,-1,1400,0,ITI,poldrack-single-stim,177,276620,0.0-6.0-117.0,go_nogo_deval,467,,<div></div>,32,1400,test,,,,,,,,,,,,-1,-1,500,0,fixation,poldrack-single-stim,178,277121,0.0-6.0-118.0,go_nogo_deval,467,,<div class = centerbox><div class = fixation>+</div></div>,none,500,test,,,,,,,,,,,,458,32,850,0,stim,poldrack-single-stim,179,277972,0.0-6.0-119.0,go_nogo_deval,467,,<img class = center src='/static/experiments/go_nogo_deval/images/blue_circle.png'></img>,32,850,test,blue_circle,go2,32,39,0,,,,,,,-1,-1,1400,0,ITI,poldrack-single-stim,180,279374,0.0-6.0-120.0,go_nogo_deval,467,,<div></div>,32,1400,test,,,,,,,,,,,,-1,-1,500,0,fixation,poldrack-single-stim,181,279876,0.0-6.0-121.0,go_nogo_deval,467,,<div class = centerbox><div class = fixation>+</div></div>,none,500,test,,,,,,,,,,,,539,32,850,0,stim,poldrack-single-stim,182,280728,0.0-6.0-122.0,go_nogo_deval,467,,<img class = center src='/static/experiments/go_nogo_deval/images/blue_circle.png'></img>,32,850,test,blue_circle,go2,32,40,0,,,,,,,-1,-1,1400,0,ITI,poldrack-single-stim,183,282128,0.0-6.0-123.0,go_nogo_deval,467,,<div></div>,32,1400,test,,,,,,,,,,,,-1,-1,500,0,fixation,poldrack-single-stim,184,282630,0.0-6.0-124.0,go_nogo_deval,467,,<div class = centerbox><div class = fixation>+</div></div>,none,500,test,,,,,,,,,,,,-1,-1,850,0,stim,poldrack-single-stim,185,283482,0.0-6.0-125.0,go_nogo_deval,467,,<img class = center src='/static/experiments/go_nogo_deval/images/purple_pentagon.png'></img>,32,850,test,purple_pentagon,nogo2,-1,41,0,,,,,,,-1,-1,1400,0,ITI,poldrack-single-stim,186,284883,0.0-6.0-126.0,go_nogo_deval,467,,<div></div>,32,1400,test,,,,,,,,,,,,-1,-1,500,0,fixation,poldrack-single-stim,187,285385,0.0-6.0-127.0,go_nogo_deval,467,,<div class = centerbox><div class = fixation>+</div></div>,none,500,test,,,,,,,,,,,,487,32,850,0,stim,poldrack-single-stim,188,286237,0.0-6.0-128.0,go_nogo_deval,467,,<img class = center src='/static/experiments/go_nogo_deval/images/blue_circle.png'></img>,32,850,test,blue_circle,go2,32,42,0,,,,,,,-1,-1,1400,0,ITI,poldrack-single-stim,189,287639,0.0-6.0-129.0,go_nogo_deval,467,,<div></div>,32,1400,test,,,,,,,,,,,,-1,-1,500,0,fixation,poldrack-single-stim,190,288140,0.0-6.0-130.0,go_nogo_deval,467,,<div class = centerbox><div class = fixation>+</div></div>,none,500,test,,,,,,,,,,,,475,32,850,0,stim,poldrack-single-stim,191,288992,0.0-6.0-131.0,go_nogo_deval,467,,<img class = center src='/static/experiments/go_nogo_deval/images/red_triangle.png'></img>,32,850,test,red_triangle,go1,32,43,0,,,,,,,-1,-1,1400,0,ITI,poldrack-single-stim,192,290394,0.0-6.0-132.0,go_nogo_deval,467,,<div></div>,32,1400,test,,,,,,,,,,,,-1,-1,500,0,fixation,poldrack-single-stim,193,290896,0.0-6.0-133.0,go_nogo_deval,467,,<div class = centerbox><div class = fixation>+</div></div>,none,500,test,,,,,,,,,,,,431,32,850,0,stim,poldrack-single-stim,194,291747,0.0-6.0-134.0,go_nogo_deval,467,,<img class = center src='/static/experiments/go_nogo_deval/images/red_triangle.png'></img>,32,850,test,red_triangle,go1,32,44,0,,,,,,,-1,-1,1400,0,ITI,poldrack-single-stim,195,293149,0.0-6.0-135.0,go_nogo_deval,467,,<div></div>,32,1400,test,,,,,,,,,,,,-1,-1,500,0,fixation,poldrack-single-stim,196,293650,0.0-6.0-136.0,go_nogo_deval,467,,<div class = centerbox><div class = fixation>+</div></div>,none,500,test,,,,,,,,,,,,-1,-1,850,0,stim,poldrack-single-stim,197,294502,0.0-6.0-137.0,go_nogo_deval,467,,<img class = center src='/static/experiments/go_nogo_deval/images/purple_pentagon.png'></img>,32,850,test,purple_pentagon,nogo2,-1,45,0,,,,,,,-1,-1,1400,0,ITI,poldrack-single-stim,198,295903,0.0-6.0-138.0,go_nogo_deval,467,,<div></div>,32,1400,test,,,,,,,,,,,,-1,-1,500,0,fixation,poldrack-single-stim,199,296405,0.0-6.0-139.0,go_nogo_deval,467,,<div class = centerbox><div class = fixation>+</div></div>,none,500,test,,,,,,,,,,,,435,32,850,0,stim,poldrack-single-stim,200,297257,0.0-6.0-140.0,go_nogo_deval,467,,<img class = center src='/static/experiments/go_nogo_deval/images/blue_circle.png'></img>,32,850,test,blue_circle,go2,32,46,0,,,,,,,-1,-1,1400,0,ITI,poldrack-single-stim,201,298659,0.0-6.0-141.0,go_nogo_deval,467,,<div></div>,32,1400,test,,,,,,,,,,,,-1,-1,500,0,fixation,poldrack-single-stim,202,299160,0.0-6.0-142.0,go_nogo_deval,467,,<div class = centerbox><div class = fixation>+</div></div>,none,500,test,,,,,,,,,,,,-1,-1,850,0,stim,poldrack-single-stim,203,300011,0.0-6.0-143.0,go_nogo_deval,467,,<img class = center src='/static/experiments/go_nogo_deval/images/purple_pentagon.png'></img>,32,850,test,purple_pentagon,nogo2,-1,47,0,,,,,,,-1,-1,1400,0,ITI,poldrack-single-stim,204,301413,0.0-6.0-144.0,go_nogo_deval,467,,<div></div>,32,1400,test,,,,,,,,,,,,8462,13,8462,0,practice-no-stop-feedback,poldrack-single-stim,205,309880,0.0-6.1-0.1,go_nogo_deval,467,,"<div class = centerbox><p class = block-text><br>Please take this time to read your feedback and to take a short break! Press enter to continue</p><p class = block-text><strong>Average reaction time:  437 ms. Accuracy: 96%</strong></p><p class = block-text>We have detected a number of trials that <strong>required no response</strong>, where a response was made.  Please <strong>ensure that you do not respond </strong>to shapes that require no response</p></div>",13,8462,,,,,,,,,,,,,-1,-1,500,0,fixation,poldrack-single-stim,206,310382,0.0-6.1-1.1,go_nogo_deval,467,,<div class = centerbox><div class = fixation>+</div></div>,none,500,test,,,,,,,,,,,,633,32,850,0,stim,poldrack-single-stim,207,311233,0.0-6.1-2.1,go_nogo_deval,467,,<img class = center src='/static/experiments/go_nogo_deval/images/red_triangle.png'></img>,32,850,test,red_triangle,go1,32,0,1,,,,,,,-1,-1,1400,0,ITI,poldrack-single-stim,208,312635,0.0-6.1-3.1,go_nogo_deval,467,,<div></div>,32,1400,test,,,,,,,,,,,,-1,-1,500,0,fixation,poldrack-single-stim,209,313137,0.0-6.1-4.1,go_nogo_deval,467,,<div class = centerbox><div class = fixation>+</div></div>,none,500,test,,,,,,,,,,,,443,32,850,0,stim,poldrack-single-stim,210,313989,0.0-6.1-5.1,go_nogo_deval,467,,<img class = center src='/static/experiments/go_nogo_deval/images/red_triangle.png'></img>,32,850,test,red_triangle,go1,32,1,1,,,,,,,-1,-1,1400,0,ITI,poldrack-single-stim,211,315390,0.0-6.1-6.1,go_nogo_deval,467,,<div></div>,32,1400,test,,,,,,,,,,,,-1,-1,500,0,fixation,poldrack-single-stim,212,315890,0.0-6.1-7.1,go_nogo_deval,467,,<div class = centerbox><div class = fixation>+</div></div>,none,500,test,,,,,,,,,,,,401,32,850,0,stim,poldrack-single-stim,213,316742,0.0-6.1-8.1,go_nogo_deval,467,,<img class = center src='/static/experiments/go_nogo_deval/images/red_triangle.png'></img>,32,850,test,red_triangle,go1,32,2,1,,,,,,,-1,-1,1400,0,ITI,poldrack-single-stim,214,318144,0.0-6.1-9.1,go_nogo_deval,467,,<div></div>,32,1400,test,,,,,,,,,,,,-1,-1,500,0,fixation,poldrack-single-stim,215,318645,0.0-6.1-10.1,go_nogo_deval,467,,<div class = centerbox><div class = fixation>+</div></div>,none,500,test,,,,,,,,,,,,390,32,850,0,stim,poldrack-single-stim,216,319497,0.0-6.1-11.1,go_nogo_deval,467,,<img class = center src='/static/experiments/go_nogo_deval/images/red_triangle.png'></img>,32,850,test,red_triangle,go1,32,3,1,,,,,,,-1,-1,1400,0,ITI,poldrack-single-stim,217,320898,0.0-6.1-12.1,go_nogo_deval,467,,<div></div>,32,1400,test,,,,,,,,,,,,-1,-1,500,0,fixation,poldrack-single-stim,218,321400,0.0-6.1-13.1,go_nogo_deval,467,,<div class = centerbox><div class = fixation>+</div></div>,none,500,test,,,,,,,,,,,,483,32,850,0,stim,poldrack-single-stim,219,322251,0.0-6.1-14.1,go_nogo_deval,467,,<img class = center src='/static/experiments/go_nogo_deval/images/blue_circle.png'></img>,32,850,test,blue_circle,go2,32,4,1,,,,,,,-1,-1,1400,0,ITI,poldrack-single-stim,220,323652,0.0-6.1-15.1,go_nogo_deval,467,,<div></div>,32,1400,test,,,,,,,,,,,,-1,-1,500,0,fixation,poldrack-single-stim,221,324153,0.0-6.1-16.1,go_nogo_deval,467,,<div class = centerbox><div class = fixation>+</div></div>,none,500,test,,,,,,,,,,,,-1,-1,850,0,stim,poldrack-single-stim,222,325005,0.0-6.1-17.1,go_nogo_deval,467,,<img class = center src='/static/experiments/go_nogo_deval/images/green_rhombus.png'></img>,32,850,test,green_rhombus,nogo1,-1,5,1,,,,,,,-1,-1,1400,0,ITI,poldrack-single-stim,223,326406,0.0-6.1-18.1,go_nogo_deval,467,,<div></div>,32,1400,test,,,,,,,,,,,,-1,-1,500,0,fixation,poldrack-single-stim,224,326908,0.0-6.1-19.1,go_nogo_deval,467,,<div class = centerbox><div class = fixation>+</div></div>,none,500,test,,,,,,,,,,,,397,32,850,0,stim,poldrack-single-stim,225,327759,0.0-6.1-20.1,go_nogo_deval,467,,<img class = center src='/static/experiments/go_nogo_deval/images/blue_circle.png'></img>,32,850,test,blue_circle,go2,32,6,1,,,,,,,-1,-1,1400,0,ITI,poldrack-single-stim,226,329160,0.0-6.1-21.1,go_nogo_deval,467,,<div></div>,32,1400,test,,,,,,,,,,,,-1,-1,500,0,fixation,poldrack-single-stim,227,329661,0.0-6.1-22.1,go_nogo_deval,467,,<div class = centerbox><div class = fixation>+</div></div>,none,500,test,,,,,,,,,,,,434,32,850,0,stim,poldrack-single-stim,228,330512,0.0-6.1-23.1,go_nogo_deval,467,,<img class = center src='/static/experiments/go_nogo_deval/images/blue_circle.png'></img>,32,850,test,blue_circle,go2,32,7,1,,,,,,,-1,-1,1400,0,ITI,poldrack-single-stim,229,331913,0.0-6.1-24.1,go_nogo_deval,467,,<div></div>,32,1400,test,,,,,,,,,,,,-1,-1,500,0,fixation,poldrack-single-stim,230,332414,0.0-6.1-25.1,go_nogo_deval,467,,<div class = centerbox><div class = fixation>+</div></div>,none,500,test,,,,,,,,,,,,-1,-1,850,0,stim,poldrack-single-stim,231,333265,0.0-6.1-26.1,go_nogo_deval,467,,<img class = center src='/static/experiments/go_nogo_deval/images/green_rhombus.png'></img>,32,850,test,green_rhombus,nogo1,-1,8,1,,,,,,,-1,-1,1400,0,ITI,poldrack-single-stim,232,334666,0.0-6.1-27.1,go_nogo_deval,467,,<div></div>,32,1400,test,,,,,,,,,,,,-1,-1,500,0,fixation,poldrack-single-stim,233,335167,0.0-6.1-28.1,go_nogo_deval,467,,<div class = centerbox><div class = fixation>+</div></div>,none,500,test,,,,,,,,,,,,419,32,850,0,stim,poldrack-single-stim,234,336019,0.0-6.1-29.1,go_nogo_deval,467,,<img class = center src='/static/experiments/go_nogo_deval/images/red_triangle.png'></img>,32,850,test,red_triangle,go1,32,9,1,,,,,,,-1,-1,1400,0,ITI,poldrack-single-stim,235,337421,0.0-6.1-30.1,go_nogo_deval,467,,<div></div>,32,1400,test,,,,,,,,,,,,-1,-1,500,0,fixation,poldrack-single-stim,236,337922,0.0-6.1-31.1,go_nogo_deval,467,,<div class = centerbox><div class = fixation>+</div></div>,none,500,test,,,,,,,,,,,,453,32,850,0,stim,poldrack-single-stim,237,338773,0.0-6.1-32.1,go_nogo_deval,467,,<img class = center src='/static/experiments/go_nogo_deval/images/blue_circle.png'></img>,32,850,test,blue_circle,go2,32,10,1,,,,,,,-1,-1,1400,0,ITI,poldrack-single-stim,238,340174,0.0-6.1-33.1,go_nogo_deval,467,,<div></div>,32,1400,test,,,,,,,,,,,,-1,-1,500,0,fixation,poldrack-single-stim,239,340675,0.0-6.1-34.1,go_nogo_deval,467,,<div class = centerbox><div class = fixation>+</div></div>,none,500,test,,,,,,,,,,,,-1,-1,850,0,stim,poldrack-single-stim,240,341527,0.0-6.1-35.1,go_nogo_deval,467,,<img class = center src='/static/experiments/go_nogo_deval/images/purple_pentagon.png'></img>,32,850,test,purple_pentagon,nogo2,-1,11,1,,,,,,,-1,-1,1400,0,ITI,poldrack-single-stim,241,342929,0.0-6.1-36.1,go_nogo_deval,467,,<div></div>,32,1400,test,,,,,,,,,,,,-1,-1,500,0,fixation,poldrack-single-stim,242,343430,0.0-6.1-37.1,go_nogo_deval,467,,<div class = centerbox><div class = fixation>+</div></div>,none,500,test,,,,,,,,,,,,424,32,850,0,stim,poldrack-single-stim,243,344281,0.0-6.1-38.1,go_nogo_deval,467,,<img class = center src='/static/experiments/go_nogo_deval/images/blue_circle.png'></img>,32,850,test,blue_circle,go2,32,12,1,,,,,,,-1,-1,1400,0,ITI,poldrack-single-stim,244,345683,0.0-6.1-39.1,go_nogo_deval,467,,<div></div>,32,1400,test,,,,,,,,,,,,-1,-1,500,0,fixation,poldrack-single-stim,245,346184,0.0-6.1-40.1,go_nogo_deval,467,,<div class = centerbox><div class = fixation>+</div></div>,none,500,test,,,,,,,,,,,,450,32,850,0,stim,poldrack-single-stim,246,347035,0.0-6.1-41.1,go_nogo_deval,467,,<img class = center src='/static/experiments/go_nogo_deval/images/blue_circle.png'></img>,32,850,test,blue_circle,go2,32,13,1,,,,,,,-1,-1,1400,0,ITI,poldrack-single-stim,247,348436,0.0-6.1-42.1,go_nogo_deval,467,,<div></div>,32,1400,test,,,,,,,,,,,,-1,-1,500,0,fixation,poldrack-single-stim,248,348937,0.0-6.1-43.1,go_nogo_deval,467,,<div class = centerbox><div class = fixation>+</div></div>,none,500,test,,,,,,,,,,,,-1,-1,850,0,stim,poldrack-single-stim,249,349788,0.0-6.1-44.1,go_nogo_deval,467,,<img class = center src='/static/experiments/go_nogo_deval/images/purple_pentagon.png'></img>,32,850,test,purple_pentagon,nogo2,-1,14,1,,,,,,,-1,-1,1400,0,ITI,poldrack-single-stim,250,351189,0.0-6.1-45.1,go_nogo_deval,467,,<div></div>,32,1400,test,,,,,,,,,,,,-1,-1,500,0,fixation,poldrack-single-stim,251,351691,0.0-6.1-46.1,go_nogo_deval,467,,<div class = centerbox><div class = fixation>+</div></div>,none,500,test,,,,,,,,,,,,420,32,850,0,stim,poldrack-single-stim,252,352543,0.0-6.1-47.1,go_nogo_deval,467,,<img class = center src='/static/experiments/go_nogo_deval/images/red_triangle.png'></img>,32,850,test,red_triangle,go1,32,15,1,,,,,,,-1,-1,1400,0,ITI,poldrack-single-stim,253,353944,0.0-6.1-48.1,go_nogo_deval,467,,<div></div>,32,1400,test,,,,,,,,,,,,-1,-1,500,0,fixation,poldrack-single-stim,254,354445,0.0-6.1-49.1,go_nogo_deval,467,,<div class = centerbox><div class = fixation>+</div></div>,none,500,test,,,,,,,,,,,,-1,-1,850,0,stim,poldrack-single-stim,255,355297,0.0-6.1-50.1,go_nogo_deval,467,,<img class = center src='/static/experiments/go_nogo_deval/images/purple_pentagon.png'></img>,32,850,test,purple_pentagon,nogo2,-1,16,1,,,,,,,-1,-1,1400,0,ITI,poldrack-single-stim,256,356699,0.0-6.1-51.1,go_nogo_deval,467,,<div></div>,32,1400,test,,,,,,,,,,,,-1,-1,500,0,fixation,poldrack-single-stim,257,357200,0.0-6.1-52.1,go_nogo_deval,467,,<div class = centerbox><div class = fixation>+</div></div>,none,500,test,,,,,,,,,,,,447,32,850,0,stim,poldrack-single-stim,258,358052,0.0-6.1-53.1,go_nogo_deval,467,,<img class = center src='/static/experiments/go_nogo_deval/images/red_triangle.png'></img>,32,850,test,red_triangle,go1,32,17,1,,,,,,,-1,-1,1400,0,ITI,poldrack-single-stim,259,359453,0.0-6.1-54.1,go_nogo_deval,467,,<div></div>,32,1400,test,,,,,,,,,,,,-1,-1,500,0,fixation,poldrack-single-stim,260,359955,0.0-6.1-55.1,go_nogo_deval,467,,<div class = centerbox><div class = fixation>+</div></div>,none,500,test,,,,,,,,,,,,-1,-1,850,0,stim,poldrack-single-stim,261,360806,0.0-6.1-56.1,go_nogo_deval,467,,<img class = center src='/static/experiments/go_nogo_deval/images/purple_pentagon.png'></img>,32,850,test,purple_pentagon,nogo2,-1,18,1,,,,,,,-1,-1,1400,0,ITI,poldrack-single-stim,262,362208,0.0-6.1-57.1,go_nogo_deval,467,,<div></div>,32,1400,test,,,,,,,,,,,,-1,-1,500,0,fixation,poldrack-single-stim,263,362709,0.0-6.1-58.1,go_nogo_deval,467,,<div class = centerbox><div class = fixation>+</div></div>,none,500,test,,,,,,,,,,,,494,32,850,0,stim,poldrack-single-stim,264,363560,0.0-6.1-59.1,go_nogo_deval,467,,<img class = center src='/static/experiments/go_nogo_deval/images/blue_circle.png'></img>,32,850,test,blue_circle,go2,32,19,1,,,,,,,-1,-1,1400,0,ITI,poldrack-single-stim,265,364962,0.0-6.1-60.1,go_nogo_deval,467,,<div></div>,32,1400,test,,,,,,,,,,,,-1,-1,500,0,fixation,poldrack-single-stim,266,365463,0.0-6.1-61.1,go_nogo_deval,467,,<div class = centerbox><div class = fixation>+</div></div>,none,500,test,,,,,,,,,,,,-1,-1,850,0,stim,poldrack-single-stim,267,366314,0.0-6.1-62.1,go_nogo_deval,467,,<img class = center src='/static/experiments/go_nogo_deval/images/green_rhombus.png'></img>,32,850,test,green_rhombus,nogo1,-1,20,1,,,,,,,-1,-1,1400,0,ITI,poldrack-single-stim,268,367715,0.0-6.1-63.1,go_nogo_deval,467,,<div></div>,32,1400,test,,,,,,,,,,,,-1,-1,500,0,fixation,poldrack-single-stim,269,368217,0.0-6.1-64.1,go_nogo_deval,467,,<div class = centerbox><div class = fixation>+</div></div>,none,500,test,,,,,,,,,,,,-1,-1,850,0,stim,poldrack-single-stim,270,369069,0.0-6.1-65.1,go_nogo_deval,467,,<img class = center src='/static/experiments/go_nogo_deval/images/purple_pentagon.png'></img>,32,850,test,purple_pentagon,nogo2,-1,21,1,,,,,,,-1,-1,1400,0,ITI,poldrack-single-stim,271,370471,0.0-6.1-66.1,go_nogo_deval,467,,<div></div>,32,1400,test,,,,,,,,,,,,-1,-1,500,0,fixation,poldrack-single-stim,272,370973,0.0-6.1-67.1,go_nogo_deval,467,,<div class = centerbox><div class = fixation>+</div></div>,none,500,test,,,,,,,,,,,,410,32,850,0,stim,poldrack-single-stim,273,371823,0.0-6.1-68.1,go_nogo_deval,467,,<img class = center src='/static/experiments/go_nogo_deval/images/blue_circle.png'></img>,32,850,test,blue_circle,go2,32,22,1,,,,,,,-1,-1,1400,0,ITI,poldrack-single-stim,274,373224,0.0-6.1-69.1,go_nogo_deval,467,,<div></div>,32,1400,test,,,,,,,,,,,,-1,-1,500,0,fixation,poldrack-single-stim,275,373726,0.0-6.1-70.1,go_nogo_deval,467,,<div class = centerbox><div class = fixation>+</div></div>,none,500,test,,,,,,,,,,,,-1,-1,850,0,stim,poldrack-single-stim,276,374577,0.0-6.1-71.1,go_nogo_deval,467,,<img class = center src='/static/experiments/go_nogo_deval/images/purple_pentagon.png'></img>,32,850,test,purple_pentagon,nogo2,-1,23,1,,,,,,,-1,-1,1400,0,ITI,poldrack-single-stim,277,375979,0.0-6.1-72.1,go_nogo_deval,467,,<div></div>,32,1400,test,,,,,,,,,,,,-1,-1,500,0,fixation,poldrack-single-stim,278,376480,0.0-6.1-73.1,go_nogo_deval,467,,<div class = centerbox><div class = fixation>+</div></div>,none,500,test,,,,,,,,,,,,393,32,850,0,stim,poldrack-single-stim,279,377331,0.0-6.1-74.1,go_nogo_deval,467,,<img class = center src='/static/experiments/go_nogo_deval/images/red_triangle.png'></img>,32,850,test,red_triangle,go1,32,24,1,,,,,,,-1,-1,1400,0,ITI,poldrack-single-stim,280,378732,0.0-6.1-75.1,go_nogo_deval,467,,<div></div>,32,1400,test,,,,,,,,,,,,-1,-1,500,0,fixation,poldrack-single-stim,281,379234,0.0-6.1-76.1,go_nogo_deval,467,,<div class = centerbox><div class = fixation>+</div></div>,none,500,test,,,,,,,,,,,,-1,-1,850,0,stim,poldrack-single-stim,282,380086,0.0-6.1-77.1,go_nogo_deval,467,,<img class = center src='/static/experiments/go_nogo_deval/images/green_rhombus.png'></img>,32,850,test,green_rhombus,nogo1,-1,25,1,,,,,,,-1,-1,1400,0,ITI,poldrack-single-stim,283,381488,0.0-6.1-78.1,go_nogo_deval,467,,<div></div>,32,1400,test,,,,,,,,,,,,-1,-1,500,0,fixation,poldrack-single-stim,284,381989,0.0-6.1-79.1,go_nogo_deval,467,,<div class = centerbox><div class = fixation>+</div></div>,none,500,test,,,,,,,,,,,,-1,-1,850,0,stim,poldrack-single-stim,285,382841,0.0-6.1-80.1,go_nogo_deval,467,,<img class = center src='/static/experiments/go_nogo_deval/images/green_rhombus.png'></img>,32,850,test,green_rhombus,nogo1,-1,26,1,,,,,,,-1,-1,1400,0,ITI,poldrack-single-stim,286,384242,0.0-6.1-81.1,go_nogo_deval,467,,<div></div>,32,1400,test,,,,,,,,,,,,-1,-1,500,0,fixation,poldrack-single-stim,287,384744,0.0-6.1-82.1,go_nogo_deval,467,,<div class = centerbox><div class = fixation>+</div></div>,none,500,test,,,,,,,,,,,,454,32,850,0,stim,poldrack-single-stim,288,385595,0.0-6.1-83.1,go_nogo_deval,467,,<img class = center src='/static/experiments/go_nogo_deval/images/blue_circle.png'></img>,32,850,test,blue_circle,go2,32,27,1,,,,,,,-1,-1,1400,0,ITI,poldrack-single-stim,289,386997,0.0-6.1-84.1,go_nogo_deval,467,,<div></div>,32,1400,test,,,,,,,,,,,,-1,-1,500,0,fixation,poldrack-single-stim,290,387498,0.0-6.1-85.1,go_nogo_deval,467,,<div class = centerbox><div class = fixation>+</div></div>,none,500,test,,,,,,,,,,,,433,32,850,0,stim,poldrack-single-stim,291,388349,0.0-6.1-86.1,go_nogo_deval,467,,<img class = center src='/static/experiments/go_nogo_deval/images/red_triangle.png'></img>,32,850,test,red_triangle,go1,32,28,1,,,,,,,-1,-1,1400,0,ITI,poldrack-single-stim,292,389750,0.0-6.1-87.1,go_nogo_deval,467,,<div></div>,32,1400,test,,,,,,,,,,,,-1,-1,500,0,fixation,poldrack-single-stim,293,390251,0.0-6.1-88.1,go_nogo_deval,467,,<div class = centerbox><div class = fixation>+</div></div>,none,500,test,,,,,,,,,,,,504,32,850,0,stim,poldrack-single-stim,294,391103,0.0-6.1-89.1,go_nogo_deval,467,,<img class = center src='/static/experiments/go_nogo_deval/images/blue_circle.png'></img>,32,850,test,blue_circle,go2,32,29,1,,,,,,,-1,-1,1400,0,ITI,poldrack-single-stim,295,392504,0.0-6.1-90.1,go_nogo_deval,467,,<div></div>,32,1400,test,,,,,,,,,,,,-1,-1,500,0,fixation,poldrack-single-stim,296,393005,0.0-6.1-91.1,go_nogo_deval,467,,<div class = centerbox><div class = fixation>+</div></div>,none,500,test,,,,,,,,,,,,417,32,850,0,stim,poldrack-single-stim,297,393856,0.0-6.1-92.1,go_nogo_deval,467,,<img class = center src='/static/experiments/go_nogo_deval/images/red_triangle.png'></img>,32,850,test,red_triangle,go1,32,30,1,,,,,,,-1,-1,1400,0,ITI,poldrack-single-stim,298,395257,0.0-6.1-93.1,go_nogo_deval,467,,<div></div>,32,1400,test,,,,,,,,,,,,-1,-1,500,0,fixation,poldrack-single-stim,299,395759,0.0-6.1-94.1,go_nogo_deval,467,,<div class = centerbox><div class = fixation>+</div></div>,none,500,test,,,,,,,,,,,,386,32,850,0,stim,poldrack-single-stim,300,396609,0.0-6.1-95.1,go_nogo_deval,467,,<img class = center src='/static/experiments/go_nogo_deval/images/blue_circle.png'></img>,32,850,test,blue_circle,go2,32,31,1,,,,,,,-1,-1,1400,0,ITI,poldrack-single-stim,301,398011,0.0-6.1-96.1,go_nogo_deval,467,,<div></div>,32,1400,test,,,,,,,,,,,,-1,-1,500,0,fixation,poldrack-single-stim,302,398513,0.0-6.1-97.1,go_nogo_deval,467,,<div class = centerbox><div class = fixation>+</div></div>,none,500,test,,,,,,,,,,,,388,32,850,0,stim,poldrack-single-stim,303,399365,0.0-6.1-98.1,go_nogo_deval,467,,<img class = center src='/static/experiments/go_nogo_deval/images/blue_circle.png'></img>,32,850,test,blue_circle,go2,32,32,1,,,,,,,-1,-1,1400,0,ITI,poldrack-single-stim,304,400767,0.0-6.1-99.1,go_nogo_deval,467,,<div></div>,32,1400,test,,,,,,,,,,,,-1,-1,500,0,fixation,poldrack-single-stim,305,401268,0.0-6.1-100.1,go_nogo_deval,467,,<div class = centerbox><div class = fixation>+</div></div>,none,500,test,,,,,,,,,,,,445,32,850,0,stim,poldrack-single-stim,306,402119,0.0-6.1-101.1,go_nogo_deval,467,,<img class = center src='/static/experiments/go_nogo_deval/images/red_triangle.png'></img>,32,850,test,red_triangle,go1,32,33,1,,,,,,,-1,-1,1400,0,ITI,poldrack-single-stim,307,403521,0.0-6.1-102.1,go_nogo_deval,467,,<div></div>,32,1400,test,,,,,,,,,,,,-1,-1,500,0,fixation,poldrack-single-stim,308,404022,0.0-6.1-103.1,go_nogo_deval,467,,<div class = centerbox><div class = fixation>+</div></div>,none,500,test,,,,,,,,,,,,-1,-1,850,0,stim,poldrack-single-stim,309,404874,0.0-6.1-104.1,go_nogo_deval,467,,<img class = center src='/static/experiments/go_nogo_deval/images/green_rhombus.png'></img>,32,850,test,green_rhombus,nogo1,-1,34,1,,,,,,,-1,-1,1400,0,ITI,poldrack-single-stim,310,406276,0.0-6.1-105.1,go_nogo_deval,467,,<div></div>,32,1400,test,,,,,,,,,,,,-1,-1,500,0,fixation,poldrack-single-stim,311,406777,0.0-6.1-106.1,go_nogo_deval,467,,<div class = centerbox><div class = fixation>+</div></div>,none,500,test,,,,,,,,,,,,348,32,850,0,stim,poldrack-single-stim,312,407629,0.0-6.1-107.1,go_nogo_deval,467,,<img class = center src='/static/experiments/go_nogo_deval/images/red_triangle.png'></img>,32,850,test,red_triangle,go1,32,35,1,,,,,,,-1,-1,1400,0,ITI,poldrack-single-stim,313,409030,0.0-6.1-108.1,go_nogo_deval,467,,<div></div>,32,1400,test,,,,,,,,,,,,-1,-1,500,0,fixation,poldrack-single-stim,314,409531,0.0-6.1-109.1,go_nogo_deval,467,,<div class = centerbox><div class = fixation>+</div></div>,none,500,test,,,,,,,,,,,,417,32,850,0,stim,poldrack-single-stim,315,410383,0.0-6.1-110.1,go_nogo_deval,467,,<img class = center src='/static/experiments/go_nogo_deval/images/blue_circle.png'></img>,32,850,test,blue_circle,go2,32,36,1,,,,,,,-1,-1,1400,0,ITI,poldrack-single-stim,316,411785,0.0-6.1-111.1,go_nogo_deval,467,,<div></div>,32,1400,test,,,,,,,,,,,,-1,-1,500,0,fixation,poldrack-single-stim,317,412287,0.0-6.1-112.1,go_nogo_deval,467,,<div class = centerbox><div class = fixation>+</div></div>,none,500,test,,,,,,,,,,,,395,32,850,0,stim,poldrack-single-stim,318,413138,0.0-6.1-113.1,go_nogo_deval,467,,<img class = center src='/static/experiments/go_nogo_deval/images/red_triangle.png'></img>,32,850,test,red_triangle,go1,32,37,1,,,,,,,-1,-1,1400,0,ITI,poldrack-single-stim,319,414540,0.0-6.1-114.1,go_nogo_deval,467,,<div></div>,32,1400,test,,,,,,,,,,,,-1,-1,500,0,fixation,poldrack-single-stim,320,415042,0.0-6.1-115.1,go_nogo_deval,467,,<div class = centerbox><div class = fixation>+</div></div>,none,500,test,,,,,,,,,,,,374,32,850,0,stim,poldrack-single-stim,321,415893,0.0-6.1-116.1,go_nogo_deval,467,,<img class = center src='/static/experiments/go_nogo_deval/images/blue_circle.png'></img>,32,850,test,blue_circle,go2,32,38,1,,,,,,,-1,-1,1400,0,ITI,poldrack-single-stim,322,417295,0.0-6.1-117.1,go_nogo_deval,467,,<div></div>,32,1400,test,,,,,,,,,,,,-1,-1,500,0,fixation,poldrack-single-stim,323,417796,0.0-6.1-118.1,go_nogo_deval,467,,<div class = centerbox><div class = fixation>+</div></div>,none,500,test,,,,,,,,,,,,354,32,850,0,stim,poldrack-single-stim,324,418648,0.0-6.1-119.1,go_nogo_deval,467,,<img class = center src='/static/experiments/go_nogo_deval/images/red_triangle.png'></img>,32,850,test,red_triangle,go1,32,39,1,,,,,,,-1,-1,1400,0,ITI,poldrack-single-stim,325,420049,0.0-6.1-120.1,go_nogo_deval,467,,<div></div>,32,1400,test,,,,,,,,,,,,-1,-1,500,0,fixation,poldrack-single-stim,326,420551,0.0-6.1-121.1,go_nogo_deval,467,,<div class = centerbox><div class = fixation>+</div></div>,none,500,test,,,,,,,,,,,,423,32,850,0,stim,poldrack-single-stim,327,421403,0.0-6.1-122.1,go_nogo_deval,467,,<img class = center src='/static/experiments/go_nogo_deval/images/red_triangle.png'></img>,32,850,test,red_triangle,go1,32,40,1,,,,,,,-1,-1,1400,0,ITI,poldrack-single-stim,328,422805,0.0-6.1-123.1,go_nogo_deval,467,,<div></div>,32,1400,test,,,,,,,,,,,,-1,-1,500,0,fixation,poldrack-single-stim,329,423306,0.0-6.1-124.1,go_nogo_deval,467,,<div class = centerbox><div class = fixation>+</div></div>,none,500,test,,,,,,,,,,,,379,32,850,0,stim,poldrack-single-stim,330,424158,0.0-6.1-125.1,go_nogo_deval,467,,<img class = center src='/static/experiments/go_nogo_deval/images/red_triangle.png'></img>,32,850,test,red_triangle,go1,32,41,1,,,,,,,-1,-1,1400,0,ITI,poldrack-single-stim,331,425559,0.0-6.1-126.1,go_nogo_deval,467,,<div></div>,32,1400,test,,,,,,,,,,,,-1,-1,500,0,fixation,poldrack-single-stim,332,426061,0.0-6.1-127.1,go_nogo_deval,467,,<div class = centerbox><div class = fixation>+</div></div>,none,500,test,,,,,,,,,,,,403,32,850,0,stim,poldrack-single-stim,333,426913,0.0-6.1-128.1,go_nogo_deval,467,,<img class = center src='/static/experiments/go_nogo_deval/images/blue_circle.png'></img>,32,850,test,blue_circle,go2,32,42,1,,,,,,,-1,-1,1400,0,ITI,poldrack-single-stim,334,428315,0.0-6.1-129.1,go_nogo_deval,467,,<div></div>,32,1400,test,,,,,,,,,,,,-1,-1,500,0,fixation,poldrack-single-stim,335,428817,0.0-6.1-130.1,go_nogo_deval,467,,<div class = centerbox><div class = fixation>+</div></div>,none,500,test,,,,,,,,,,,,-1,-1,850,0,stim,poldrack-single-stim,336,429669,0.0-6.1-131.1,go_nogo_deval,467,,<img class = center src='/static/experiments/go_nogo_deval/images/green_rhombus.png'></img>,32,850,test,green_rhombus,nogo1,-1,43,1,,,,,,,-1,-1,1400,0,ITI,poldrack-single-stim,337,431070,0.0-6.1-132.1,go_nogo_deval,467,,<div></div>,32,1400,test,,,,,,,,,,,,-1,-1,500,0,fixation,poldrack-single-stim,338,431571,0.0-6.1-133.1,go_nogo_deval,467,,<div class = centerbox><div class = fixation>+</div></div>,none,500,test,,,,,,,,,,,,-1,-1,850,0,stim,poldrack-single-stim,339,432423,0.0-6.1-134.1,go_nogo_deval,467,,<img class = center src='/static/experiments/go_nogo_deval/images/purple_pentagon.png'></img>,32,850,test,purple_pentagon,nogo2,-1,44,1,,,,,,,-1,-1,1400,0,ITI,poldrack-single-stim,340,433824,0.0-6.1-135.1,go_nogo_deval,467,,<div></div>,32,1400,test,,,,,,,,,,,,-1,-1,500,0,fixation,poldrack-single-stim,341,434325,0.0-6.1-136.1,go_nogo_deval,467,,<div class = centerbox><div class = fixation>+</div></div>,none,500,test,,,,,,,,,,,,452,32,850,0,stim,poldrack-single-stim,342,435176,0.0-6.1-137.1,go_nogo_deval,467,,<img class = center src='/static/experiments/go_nogo_deval/images/blue_circle.png'></img>,32,850,test,blue_circle,go2,32,45,1,,,,,,,-1,-1,1400,0,ITI,poldrack-single-stim,343,436578,0.0-6.1-138.1,go_nogo_deval,467,,<div></div>,32,1400,test,,,,,,,,,,,,-1,-1,500,0,fixation,poldrack-single-stim,344,437080,0.0-6.1-139.1,go_nogo_deval,467,,<div class = centerbox><div class = fixation>+</div></div>,none,500,test,,,,,,,,,,,,-1,-1,850,0,stim,poldrack-single-stim,345,437932,0.0-6.1-140.1,go_nogo_deval,467,,<img class = center src='/static/experiments/go_nogo_deval/images/purple_pentagon.png'></img>,32,850,test,purple_pentagon,nogo2,-1,46,1,,,,,,,-1,-1,1400,0,ITI,poldrack-single-stim,346,439333,0.0-6.1-141.1,go_nogo_deval,467,,<div></div>,32,1400,test,,,,,,,,,,,,-1,-1,500,0,fixation,poldrack-single-stim,347,439834,0.0-6.1-142.1,go_nogo_deval,467,,<div class = centerbox><div class = fixation>+</div></div>,none,500,test,,,,,,,,,,,,-1,-1,850,0,stim,poldrack-single-stim,348,440686,0.0-6.1-143.1,go_nogo_deval,467,,<img class = center src='/static/experiments/go_nogo_deval/images/green_rhombus.png'></img>,32,850,test,green_rhombus,nogo1,-1,47,1,,,,,,,-1,-1,1400,0,ITI,poldrack-single-stim,349,442088,0.0-6.1-144.1,go_nogo_deval,467,,<div></div>,32,1400,test,,,,,,,,,,,,3757,13,3757,0,practice-no-stop-feedback,poldrack-single-stim,350,445848,0.0-6.2-0.2,go_nogo_deval,467,,<div class = centerbox><p class = block-text><br>Please take this time to read your feedback and to take a short break! Press enter to continue</p><p class = block-text><strong>Average reaction time:  427 ms. Accuracy: 100%</strong></p></div>,13,3757,,,,,,,,,,,,,-1,-1,500,0,fixation,poldrack-single-stim,351,446350,0.0-6.2-1.2,go_nogo_deval,467,,<div class = centerbox><div class = fixation>+</div></div>,none,500,test,,,,,,,,,,,,465,32,850,0,stim,poldrack-single-stim,352,447202,0.0-6.2-2.2,go_nogo_deval,467,,<img class = center src='/static/experiments/go_nogo_deval/images/red_triangle.png'></img>,32,850,test,red_triangle,go1,32,0,2,,,,,,,-1,-1,1400,0,ITI,poldrack-single-stim,353,448604,0.0-6.2-3.2,go_nogo_deval,467,,<div></div>,32,1400,test,,,,,,,,,,,,-1,-1,500,0,fixation,poldrack-single-stim,354,449106,0.0-6.2-4.2,go_nogo_deval,467,,<div class = centerbox><div class = fixation>+</div></div>,none,500,test,,,,,,,,,,,,-1,-1,850,0,stim,poldrack-single-stim,355,449958,0.0-6.2-5.2,go_nogo_deval,467,,<img class = center src='/static/experiments/go_nogo_deval/images/green_rhombus.png'></img>,32,850,test,green_rhombus,nogo1,-1,1,2,,,,,,,-1,-1,1400,0,ITI,poldrack-single-stim,356,451360,0.0-6.2-6.2,go_nogo_deval,467,,<div></div>,32,1400,test,,,,,,,,,,,,-1,-1,500,0,fixation,poldrack-single-stim,357,451861,0.0-6.2-7.2,go_nogo_deval,467,,<div class = centerbox><div class = fixation>+</div></div>,none,500,test,,,,,,,,,,,,-1,-1,850,0,stim,poldrack-single-stim,358,452712,0.0-6.2-8.2,go_nogo_deval,467,,<img class = center src='/static/experiments/go_nogo_deval/images/purple_pentagon.png'></img>,32,850,test,purple_pentagon,nogo2,-1,2,2,,,,,,,-1,-1,1400,0,ITI,poldrack-single-stim,359,454114,0.0-6.2-9.2,go_nogo_deval,467,,<div></div>,32,1400,test,,,,,,,,,,,,-1,-1,500,0,fixation,poldrack-single-stim,360,454614,0.0-6.2-10.2,go_nogo_deval,467,,<div class = centerbox><div class = fixation>+</div></div>,none,500,test,,,,,,,,,,,,-1,-1,850,0,stim,poldrack-single-stim,361,455466,0.0-6.2-11.2,go_nogo_deval,467,,<img class = center src='/static/experiments/go_nogo_deval/images/green_rhombus.png'></img>,32,850,test,green_rhombus,nogo1,-1,3,2,,,,,,,-1,-1,1400,0,ITI,poldrack-single-stim,362,456868,0.0-6.2-12.2,go_nogo_deval,467,,<div></div>,32,1400,test,,,,,,,,,,,,-1,-1,500,0,fixation,poldrack-single-stim,363,457370,0.0-6.2-13.2,go_nogo_deval,467,,<div class = centerbox><div class = fixation>+</div></div>,none,500,test,,,,,,,,,,,,437,32,850,0,stim,poldrack-single-stim,364,458221,0.0-6.2-14.2,go_nogo_deval,467,,<img class = center src='/static/experiments/go_nogo_deval/images/red_triangle.png'></img>,32,850,test,red_triangle,go1,32,4,2,,,,,,,-1,-1,1400,0,ITI,poldrack-single-stim,365,459623,0.0-6.2-15.2,go_nogo_deval,467,,<div></div>,32,1400,test,,,,,,,,,,,,-1,-1,500,0,fixation,poldrack-single-stim,366,460125,0.0-6.2-16.2,go_nogo_deval,467,,<div class = centerbox><div class = fixation>+</div></div>,none,500,test,,,,,,,,,,,,-1,-1,850,0,stim,poldrack-single-stim,367,460976,0.0-6.2-17.2,go_nogo_deval,467,,<img class = center src='/static/experiments/go_nogo_deval/images/purple_pentagon.png'></img>,32,850,test,purple_pentagon,nogo2,-1,5,2,,,,,,,-1,-1,1400,0,ITI,poldrack-single-stim,368,462377,0.0-6.2-18.2,go_nogo_deval,467,,<div></div>,32,1400,test,,,,,,,,,,,,-1,-1,500,0,fixation,poldrack-single-stim,369,462879,0.0-6.2-19.2,go_nogo_deval,467,,<div class = centerbox><div class = fixation>+</div></div>,none,500,test,,,,,,,,,,,,496,32,850,0,stim,poldrack-single-stim,370,463730,0.0-6.2-20.2,go_nogo_deval,467,,<img class = center src='/static/experiments/go_nogo_deval/images/blue_circle.png'></img>,32,850,test,blue_circle,go2,32,6,2,,,,,,,-1,-1,1400,0,ITI,poldrack-single-stim,371,465132,0.0-6.2-21.2,go_nogo_deval,467,,<div></div>,32,1400,test,,,,,,,,,,,,-1,-1,500,0,fixation,poldrack-single-stim,372,465633,0.0-6.2-22.2,go_nogo_deval,467,,<div class = centerbox><div class = fixation>+</div></div>,none,500,test,,,,,,,,,,,,454,32,850,0,stim,poldrack-single-stim,373,466485,0.0-6.2-23.2,go_nogo_deval,467,,<img class = center src='/static/experiments/go_nogo_deval/images/blue_circle.png'></img>,32,850,test,blue_circle,go2,32,7,2,,,,,,,-1,-1,1400,0,ITI,poldrack-single-stim,374,467886,0.0-6.2-24.2,go_nogo_deval,467,,<div></div>,32,1400,test,,,,,,,,,,,,-1,-1,500,0,fixation,poldrack-single-stim,375,468388,0.0-6.2-25.2,go_nogo_deval,467,,<div class = centerbox><div class = fixation>+</div></div>,none,500,test,,,,,,,,,,,,-1,-1,850,0,stim,poldrack-single-stim,376,469238,0.0-6.2-26.2,go_nogo_deval,467,,<img class = center src='/static/experiments/go_nogo_deval/images/green_rhombus.png'></img>,32,850,test,green_rhombus,nogo1,-1,8,2,,,,,,,-1,-1,1400,0,ITI,poldrack-single-stim,377,470640,0.0-6.2-27.2,go_nogo_deval,467,,<div></div>,32,1400,test,,,,,,,,,,,,-1,-1,500,0,fixation,poldrack-single-stim,378,471142,0.0-6.2-28.2,go_nogo_deval,467,,<div class = centerbox><div class = fixation>+</div></div>,none,500,test,,,,,,,,,,,,514,32,850,0,stim,poldrack-single-stim,379,471994,0.0-6.2-29.2,go_nogo_deval,467,,<img class = center src='/static/experiments/go_nogo_deval/images/red_triangle.png'></img>,32,850,test,red_triangle,go1,32,9,2,,,,,,,-1,-1,1400,0,ITI,poldrack-single-stim,380,473395,0.0-6.2-30.2,go_nogo_deval,467,,<div></div>,32,1400,test,,,,,,,,,,,,-1,-1,500,0,fixation,poldrack-single-stim,381,473896,0.0-6.2-31.2,go_nogo_deval,467,,<div class = centerbox><div class = fixation>+</div></div>,none,500,test,,,,,,,,,,,,380,32,850,0,stim,poldrack-single-stim,382,474748,0.0-6.2-32.2,go_nogo_deval,467,,<img class = center src='/static/experiments/go_nogo_deval/images/red_triangle.png'></img>,32,850,test,red_triangle,go1,32,10,2,,,,,,,-1,-1,1400,0,ITI,poldrack-single-stim,383,476150,0.0-6.2-33.2,go_nogo_deval,467,,<div></div>,32,1400,test,,,,,,,,,,,,-1,-1,500,0,fixation,poldrack-single-stim,384,476651,0.0-6.2-34.2,go_nogo_deval,467,,<div class = centerbox><div class = fixation>+</div></div>,none,500,test,,,,,,,,,,,,-1,-1,850,0,stim,poldrack-single-stim,385,477503,0.0-6.2-35.2,go_nogo_deval,467,,<img class = center src='/static/experiments/go_nogo_deval/images/green_rhombus.png'></img>,32,850,test,green_rhombus,nogo1,-1,11,2,,,,,,,-1,-1,1400,0,ITI,poldrack-single-stim,386,478905,0.0-6.2-36.2,go_nogo_deval,467,,<div></div>,32,1400,test,,,,,,,,,,,,-1,-1,500,0,fixation,poldrack-single-stim,387,479407,0.0-6.2-37.2,go_nogo_deval,467,,<div class = centerbox><div class = fixation>+</div></div>,none,500,test,,,,,,,,,,,,-1,-1,850,0,stim,poldrack-single-stim,388,480259,0.0-6.2-38.2,go_nogo_deval,467,,<img class = center src='/static/experiments/go_nogo_deval/images/purple_pentagon.png'></img>,32,850,test,purple_pentagon,nogo2,-1,12,2,,,,,,,-1,-1,1400,0,ITI,poldrack-single-stim,389,481660,0.0-6.2-39.2,go_nogo_deval,467,,<div></div>,32,1400,test,,,,,,,,,,,,-1,-1,500,0,fixation,poldrack-single-stim,390,482162,0.0-6.2-40.2,go_nogo_deval,467,,<div class = centerbox><div class = fixation>+</div></div>,none,500,test,,,,,,,,,,,,-1,-1,850,0,stim,poldrack-single-stim,391,483013,0.0-6.2-41.2,go_nogo_deval,467,,<img class = center src='/static/experiments/go_nogo_deval/images/green_rhombus.png'></img>,32,850,test,green_rhombus,nogo1,-1,13,2,,,,,,,-1,-1,1400,0,ITI,poldrack-single-stim,392,484414,0.0-6.2-42.2,go_nogo_deval,467,,<div></div>,32,1400,test,,,,,,,,,,,,-1,-1,500,0,fixation,poldrack-single-stim,393,484916,0.0-6.2-43.2,go_nogo_deval,467,,<div class = centerbox><div class = fixation>+</div></div>,none,500,test,,,,,,,,,,,,408,32,850,0,stim,poldrack-single-stim,394,485768,0.0-6.2-44.2,go_nogo_deval,467,,<img class = center src='/static/experiments/go_nogo_deval/images/red_triangle.png'></img>,32,850,test,red_triangle,go1,32,14,2,,,,,,,-1,-1,1400,0,ITI,poldrack-single-stim,395,487169,0.0-6.2-45.2,go_nogo_deval,467,,<div></div>,32,1400,test,,,,,,,,,,,,-1,-1,500,0,fixation,poldrack-single-stim,396,487671,0.0-6.2-46.2,go_nogo_deval,467,,<div class = centerbox><div class = fixation>+</div></div>,none,500,test,,,,,,,,,,,,431,32,850,0,stim,poldrack-single-stim,397,488523,0.0-6.2-47.2,go_nogo_deval,467,,<img class = center src='/static/experiments/go_nogo_deval/images/red_triangle.png'></img>,32,850,test,red_triangle,go1,32,15,2,,,,,,,-1,-1,1400,0,ITI,poldrack-single-stim,398,489925,0.0-6.2-48.2,go_nogo_deval,467,,<div></div>,32,1400,test,,,,,,,,,,,,-1,-1,500,0,fixation,poldrack-single-stim,399,490426,0.0-6.2-49.2,go_nogo_deval,467,,<div class = centerbox><div class = fixation>+</div></div>,none,500,test,,,,,,,,,,,,377,32,850,0,stim,poldrack-single-stim,400,491277,0.0-6.2-50.2,go_nogo_deval,467,,<img class = center src='/static/experiments/go_nogo_deval/images/red_triangle.png'></img>,32,850,test,red_triangle,go1,32,16,2,,,,,,,-1,-1,1400,0,ITI,poldrack-single-stim,401,492678,0.0-6.2-51.2,go_nogo_deval,467,,<div></div>,32,1400,test,,,,,,,,,,,,-1,-1,500,0,fixation,poldrack-single-stim,402,493180,0.0-6.2-52.2,go_nogo_deval,467,,<div class = centerbox><div class = fixation>+</div></div>,none,500,test,,,,,,,,,,,,390,32,850,0,stim,poldrack-single-stim,403,494032,0.0-6.2-53.2,go_nogo_deval,467,,<img class = center src='/static/experiments/go_nogo_deval/images/blue_circle.png'></img>,32,850,test,blue_circle,go2,32,17,2,,,,,,,-1,-1,1400,0,ITI,poldrack-single-stim,404,495434,0.0-6.2-54.2,go_nogo_deval,467,,<div></div>,32,1400,test,,,,,,,,,,,,-1,-1,500,0,fixation,poldrack-single-stim,405,495936,0.0-6.2-55.2,go_nogo_deval,467,,<div class = centerbox><div class = fixation>+</div></div>,none,500,test,,,,,,,,,,,,380,32,850,0,stim,poldrack-single-stim,406,496788,0.0-6.2-56.2,go_nogo_deval,467,,<img class = center src='/static/experiments/go_nogo_deval/images/red_triangle.png'></img>,32,850,test,red_triangle,go1,32,18,2,,,,,,,-1,-1,1400,0,ITI,poldrack-single-stim,407,498189,0.0-6.2-57.2,go_nogo_deval,467,,<div></div>,32,1400,test,,,,,,,,,,,,-1,-1,500,0,fixation,poldrack-single-stim,408,498691,0.0-6.2-58.2,go_nogo_deval,467,,<div class = centerbox><div class = fixation>+</div></div>,none,500,test,,,,,,,,,,,,402,32,850,0,stim,poldrack-single-stim,409,499543,0.0-6.2-59.2,go_nogo_deval,467,,<img class = center src='/static/experiments/go_nogo_deval/images/red_triangle.png'></img>,32,850,test,red_triangle,go1,32,19,2,,,,,,,-1,-1,1400,0,ITI,poldrack-single-stim,410,500944,0.0-6.2-60.2,go_nogo_deval,467,,<div></div>,32,1400,test,,,,,,,,,,,,-1,-1,500,0,fixation,poldrack-single-stim,411,501445,0.0-6.2-61.2,go_nogo_deval,467,,<div class = centerbox><div class = fixation>+</div></div>,none,500,test,,,,,,,,,,,,382,32,850,0,stim,poldrack-single-stim,412,502296,0.0-6.2-62.2,go_nogo_deval,467,,<img class = center src='/static/experiments/go_nogo_deval/images/blue_circle.png'></img>,32,850,test,blue_circle,go2,32,20,2,,,,,,,-1,-1,1400,0,ITI,poldrack-single-stim,413,503698,0.0-6.2-63.2,go_nogo_deval,467,,<div></div>,32,1400,test,,,,,,,,,,,,-1,-1,500,0,fixation,poldrack-single-stim,414,504200,0.0-6.2-64.2,go_nogo_deval,467,,<div class = centerbox><div class = fixation>+</div></div>,none,500,test,,,,,,,,,,,,-1,-1,850,0,stim,poldrack-single-stim,415,505051,0.0-6.2-65.2,go_nogo_deval,467,,<img class = center src='/static/experiments/go_nogo_deval/images/green_rhombus.png'></img>,32,850,test,green_rhombus,nogo1,-1,21,2,,,,,,,-1,-1,1400,0,ITI,poldrack-single-stim,416,506453,0.0-6.2-66.2,go_nogo_deval,467,,<div></div>,32,1400,test,,,,,,,,,,,,-1,-1,500,0,fixation,poldrack-single-stim,417,506954,0.0-6.2-67.2,go_nogo_deval,467,,<div class = centerbox><div class = fixation>+</div></div>,none,500,test,,,,,,,,,,,,577,32,850,0,stim,poldrack-single-stim,418,507805,0.0-6.2-68.2,go_nogo_deval,467,,<img class = center src='/static/experiments/go_nogo_deval/images/blue_circle.png'></img>,32,850,test,blue_circle,go2,32,22,2,,,,,,,-1,-1,1400,0,ITI,poldrack-single-stim,419,509207,0.0-6.2-69.2,go_nogo_deval,467,,<div></div>,32,1400,test,,,,,,,,,,,,-1,-1,500,0,fixation,poldrack-single-stim,420,509709,0.0-6.2-70.2,go_nogo_deval,467,,<div class = centerbox><div class = fixation>+</div></div>,none,500,test,,,,,,,,,,,,433,32,850,0,stim,poldrack-single-stim,421,510561,0.0-6.2-71.2,go_nogo_deval,467,,<img class = center src='/static/experiments/go_nogo_deval/images/red_triangle.png'></img>,32,850,test,red_triangle,go1,32,23,2,,,,,,,-1,-1,1400,0,ITI,poldrack-single-stim,422,511961,0.0-6.2-72.2,go_nogo_deval,467,,<div></div>,32,1400,test,,,,,,,,,,,,-1,-1,500,0,fixation,poldrack-single-stim,423,512463,0.0-6.2-73.2,go_nogo_deval,467,,<div class = centerbox><div class = fixation>+</div></div>,none,500,test,,,,,,,,,,,,-1,-1,850,0,stim,poldrack-single-stim,424,513314,0.0-6.2-74.2,go_nogo_deval,467,,<img class = center src='/static/experiments/go_nogo_deval/images/green_rhombus.png'></img>,32,850,test,green_rhombus,nogo1,-1,24,2,,,,,,,-1,-1,1400,0,ITI,poldrack-single-stim,425,514715,0.0-6.2-75.2,go_nogo_deval,467,,<div></div>,32,1400,test,,,,,,,,,,,,-1,-1,500,0,fixation,poldrack-single-stim,426,515217,0.0-6.2-76.2,go_nogo_deval,467,,<div class = centerbox><div class = fixation>+</div></div>,none,500,test,,,,,,,,,,,,459,32,850,0,stim,poldrack-single-stim,427,516069,0.0-6.2-77.2,go_nogo_deval,467,,<img class = center src='/static/experiments/go_nogo_deval/images/red_triangle.png'></img>,32,850,test,red_triangle,go1,32,25,2,,,,,,,-1,-1,1400,0,ITI,poldrack-single-stim,428,517470,0.0-6.2-78.2,go_nogo_deval,467,,<div></div>,32,1400,test,,,,,,,,,,,,-1,-1,500,0,fixation,poldrack-single-stim,429,517972,0.0-6.2-79.2,go_nogo_deval,467,,<div class = centerbox><div class = fixation>+</div></div>,none,500,test,,,,,,,,,,,,-1,-1,850,0,stim,poldrack-single-stim,430,518823,0.0-6.2-80.2,go_nogo_deval,467,,<img class = center src='/static/experiments/go_nogo_deval/images/purple_pentagon.png'></img>,32,850,test,purple_pentagon,nogo2,-1,26,2,,,,,,,-1,-1,1400,0,ITI,poldrack-single-stim,431,520224,0.0-6.2-81.2,go_nogo_deval,467,,<div></div>,32,1400,test,,,,,,,,,,,,-1,-1,500,0,fixation,poldrack-single-stim,432,520726,0.0-6.2-82.2,go_nogo_deval,467,,<div class = centerbox><div class = fixation>+</div></div>,none,500,test,,,,,,,,,,,,-1,-1,850,0,stim,poldrack-single-stim,433,521578,0.0-6.2-83.2,go_nogo_deval,467,,<img class = center src='/static/experiments/go_nogo_deval/images/green_rhombus.png'></img>,32,850,test,green_rhombus,nogo1,-1,27,2,,,,,,,-1,-1,1400,0,ITI,poldrack-single-stim,434,522980,0.0-6.2-84.2,go_nogo_deval,467,,<div></div>,32,1400,test,,,,,,,,,,,,-1,-1,500,0,fixation,poldrack-single-stim,435,523482,0.0-6.2-85.2,go_nogo_deval,467,,<div class = centerbox><div class = fixation>+</div></div>,none,500,test,,,,,,,,,,,,431,32,850,0,stim,poldrack-single-stim,436,524333,0.0-6.2-86.2,go_nogo_deval,467,,<img class = center src='/static/experiments/go_nogo_deval/images/blue_circle.png'></img>,32,850,test,blue_circle,go2,32,28,2,,,,,,,-1,-1,1400,0,ITI,poldrack-single-stim,437,525734,0.0-6.2-87.2,go_nogo_deval,467,,<div></div>,32,1400,test,,,,,,,,,,,,-1,-1,500,0,fixation,poldrack-single-stim,438,526235,0.0-6.2-88.2,go_nogo_deval,467,,<div class = centerbox><div class = fixation>+</div></div>,none,500,test,,,,,,,,,,,,400,32,850,0,stim,poldrack-single-stim,439,527087,0.0-6.2-89.2,go_nogo_deval,467,,<img class = center src='/static/experiments/go_nogo_deval/images/red_triangle.png'></img>,32,850,test,red_triangle,go1,32,29,2,,,,,,,-1,-1,1400,0,ITI,poldrack-single-stim,440,528488,0.0-6.2-90.2,go_nogo_deval,467,,<div></div>,32,1400,test,,,,,,,,,,,,-1,-1,500,0,fixation,poldrack-single-stim,441,528989,0.0-6.2-91.2,go_nogo_deval,467,,<div class = centerbox><div class = fixation>+</div></div>,none,500,test,,,,,,,,,,,,435,32,850,0,stim,poldrack-single-stim,442,529842,0.0-6.2-92.2,go_nogo_deval,467,,<img class = center src='/static/experiments/go_nogo_deval/images/blue_circle.png'></img>,32,850,test,blue_circle,go2,32,30,2,,,,,,,-1,-1,1400,0,ITI,poldrack-single-stim,443,531244,0.0-6.2-93.2,go_nogo_deval,467,,<div></div>,32,1400,test,,,,,,,,,,,,-1,-1,500,0,fixation,poldrack-single-stim,444,531745,0.0-6.2-94.2,go_nogo_deval,467,,<div class = centerbox><div class = fixation>+</div></div>,none,500,test,,,,,,,,,,,,368,32,850,0,stim,poldrack-single-stim,445,532597,0.0-6.2-95.2,go_nogo_deval,467,,<img class = center src='/static/experiments/go_nogo_deval/images/blue_circle.png'></img>,32,850,test,blue_circle,go2,32,31,2,,,,,,,-1,-1,1400,0,ITI,poldrack-single-stim,446,533999,0.0-6.2-96.2,go_nogo_deval,467,,<div></div>,32,1400,test,,,,,,,,,,,,-1,-1,500,0,fixation,poldrack-single-stim,447,534500,0.0-6.2-97.2,go_nogo_deval,467,,<div class = centerbox><div class = fixation>+</div></div>,none,500,test,,,,,,,,,,,,393,32,850,0,stim,poldrack-single-stim,448,535351,0.0-6.2-98.2,go_nogo_deval,467,,<img class = center src='/static/experiments/go_nogo_deval/images/blue_circle.png'></img>,32,850,test,blue_circle,go2,32,32,2,,,,,,,-1,-1,1400,0,ITI,poldrack-single-stim,449,536753,0.0-6.2-99.2,go_nogo_deval,467,,<div></div>,32,1400,test,,,,,,,,,,,,-1,-1,500,0,fixation,poldrack-single-stim,450,537255,0.0-6.2-100.2,go_nogo_deval,467,,<div class = centerbox><div class = fixation>+</div></div>,none,500,test,,,,,,,,,,,,371,32,850,0,stim,poldrack-single-stim,451,538106,0.0-6.2-101.2,go_nogo_deval,467,,<img class = center src='/static/experiments/go_nogo_deval/images/blue_circle.png'></img>,32,850,test,blue_circle,go2,32,33,2,,,,,,,-1,-1,1400,0,ITI,poldrack-single-stim,452,539508,0.0-6.2-102.2,go_nogo_deval,467,,<div></div>,32,1400,test,,,,,,,,,,,,-1,-1,500,0,fixation,poldrack-single-stim,453,540010,0.0-6.2-103.2,go_nogo_deval,467,,<div class = centerbox><div class = fixation>+</div></div>,none,500,test,,,,,,,,,,,,339,32,850,0,stim,poldrack-single-stim,454,540861,0.0-6.2-104.2,go_nogo_deval,467,,<img class = center src='/static/experiments/go_nogo_deval/images/blue_circle.png'></img>,32,850,test,blue_circle,go2,32,34,2,,,,,,,-1,-1,1400,0,ITI,poldrack-single-stim,455,542263,0.0-6.2-105.2,go_nogo_deval,467,,<div></div>,32,1400,test,,,,,,,,,,,,-1,-1,500,0,fixation,poldrack-single-stim,456,542765,0.0-6.2-106.2,go_nogo_deval,467,,<div class = centerbox><div class = fixation>+</div></div>,none,500,test,,,,,,,,,,,,351,32,850,0,stim,poldrack-single-stim,457,543617,0.0-6.2-107.2,go_nogo_deval,467,,<img class = center src='/static/experiments/go_nogo_deval/images/blue_circle.png'></img>,32,850,test,blue_circle,go2,32,35,2,,,,,,,-1,-1,1400,0,ITI,poldrack-single-stim,458,545018,0.0-6.2-108.2,go_nogo_deval,467,,<div></div>,32,1400,test,,,,,,,,,,,,-1,-1,500,0,fixation,poldrack-single-stim,459,545519,0.0-6.2-109.2,go_nogo_deval,467,,<div class = centerbox><div class = fixation>+</div></div>,none,500,test,,,,,,,,,,,,455,32,850,0,stim,poldrack-single-stim,460,546370,0.0-6.2-110.2,go_nogo_deval,467,,<img class = center src='/static/experiments/go_nogo_deval/images/blue_circle.png'></img>,32,850,test,blue_circle,go2,32,36,2,,,,,,,-1,-1,1400,0,ITI,poldrack-single-stim,461,547772,0.0-6.2-111.2,go_nogo_deval,467,,<div></div>,32,1400,test,,,,,,,,,,,,-1,-1,500,0,fixation,poldrack-single-stim,462,548274,0.0-6.2-112.2,go_nogo_deval,467,,<div class = centerbox><div class = fixation>+</div></div>,none,500,test,,,,,,,,,,,,388,32,850,0,stim,poldrack-single-stim,463,549126,0.0-6.2-113.2,go_nogo_deval,467,,<img class = center src='/static/experiments/go_nogo_deval/images/red_triangle.png'></img>,32,850,test,red_triangle,go1,32,37,2,,,,,,,-1,-1,1400,0,ITI,poldrack-single-stim,464,550528,0.0-6.2-114.2,go_nogo_deval,467,,<div></div>,32,1400,test,,,,,,,,,,,,-1,-1,500,0,fixation,poldrack-single-stim,465,551028,0.0-6.2-115.2,go_nogo_deval,467,,<div class = centerbox><div class = fixation>+</div></div>,none,500,test,,,,,,,,,,,,379,32,850,0,stim,poldrack-single-stim,466,551880,0.0-6.2-116.2,go_nogo_deval,467,,<img class = center src='/static/experiments/go_nogo_deval/images/blue_circle.png'></img>,32,850,test,blue_circle,go2,32,38,2,,,,,,,-1,-1,1400,0,ITI,poldrack-single-stim,467,553282,0.0-6.2-117.2,go_nogo_deval,467,,<div></div>,32,1400,test,,,,,,,,,,,,-1,-1,500,0,fixation,poldrack-single-stim,468,553784,0.0-6.2-118.2,go_nogo_deval,467,,<div class = centerbox><div class = fixation>+</div></div>,none,500,test,,,,,,,,,,,,357,32,850,0,stim,poldrack-single-stim,469,554636,0.0-6.2-119.2,go_nogo_deval,467,,<img class = center src='/static/experiments/go_nogo_deval/images/blue_circle.png'></img>,32,850,test,blue_circle,go2,32,39,2,,,,,,,-1,-1,1400,0,ITI,poldrack-single-stim,470,556037,0.0-6.2-120.2,go_nogo_deval,467,,<div></div>,32,1400,test,,,,,,,,,,,,-1,-1,500,0,fixation,poldrack-single-stim,471,556539,0.0-6.2-121.2,go_nogo_deval,467,,<div class = centerbox><div class = fixation>+</div></div>,none,500,test,,,,,,,,,,,,325,32,850,0,stim,poldrack-single-stim,472,557390,0.0-6.2-122.2,go_nogo_deval,467,,<img class = center src='/static/experiments/go_nogo_deval/images/red_triangle.png'></img>,32,850,test,red_triangle,go1,32,40,2,,,,,,,-1,-1,1400,0,ITI,poldrack-single-stim,473,558792,0.0-6.2-123.2,go_nogo_deval,467,,<div></div>,32,1400,test,,,,,,,,,,,,-1,-1,500,0,fixation,poldrack-single-stim,474,559293,0.0-6.2-124.2,go_nogo_deval,467,,<div class = centerbox><div class = fixation>+</div></div>,none,500,test,,,,,,,,,,,,406,32,850,0,stim,poldrack-single-stim,475,560145,0.0-6.2-125.2,go_nogo_deval,467,,<img class = center src='/static/experiments/go_nogo_deval/images/red_triangle.png'></img>,32,850,test,red_triangle,go1,32,41,2,,,,,,,-1,-1,1400,0,ITI,poldrack-single-stim,476,561547,0.0-6.2-126.2,go_nogo_deval,467,,<div></div>,32,1400,test,,,,,,,,,,,,-1,-1,500,0,fixation,poldrack-single-stim,477,562049,0.0-6.2-127.2,go_nogo_deval,467,,<div class = centerbox><div class = fixation>+</div></div>,none,500,test,,,,,,,,,,,,-1,-1,850,0,stim,poldrack-single-stim,478,562900,0.0-6.2-128.2,go_nogo_deval,467,,<img class = center src='/static/experiments/go_nogo_deval/images/purple_pentagon.png'></img>,32,850,test,purple_pentagon,nogo2,-1,42,2,,,,,,,-1,-1,1400,0,ITI,poldrack-single-stim,479,564302,0.0-6.2-129.2,go_nogo_deval,467,,<div></div>,32,1400,test,,,,,,,,,,,,-1,-1,500,0,fixation,poldrack-single-stim,480,564803,0.0-6.2-130.2,go_nogo_deval,467,,<div class = centerbox><div class = fixation>+</div></div>,none,500,test,,,,,,,,,,,,486,32,850,0,stim,poldrack-single-stim,481,565655,0.0-6.2-131.2,go_nogo_deval,467,,<img class = center src='/static/experiments/go_nogo_deval/images/red_triangle.png'></img>,32,850,test,red_triangle,go1,32,43,2,,,,,,,-1,-1,1400,0,ITI,poldrack-single-stim,482,567057,0.0-6.2-132.2,go_nogo_deval,467,,<div></div>,32,1400,test,,,,,,,,,,,,-1,-1,500,0,fixation,poldrack-single-stim,483,567558,0.0-6.2-133.2,go_nogo_deval,467,,<div class = centerbox><div class = fixation>+</div></div>,none,500,test,,,,,,,,,,,,-1,-1,850,0,stim,poldrack-single-stim,484,568410,0.0-6.2-134.2,go_nogo_deval,467,,<img class = center src='/static/experiments/go_nogo_deval/images/purple_pentagon.png'></img>,32,850,test,purple_pentagon,nogo2,-1,44,2,,,,,,,-1,-1,1400,0,ITI,poldrack-single-stim,485,569811,0.0-6.2-135.2,go_nogo_deval,467,,<div></div>,32,1400,test,,,,,,,,,,,,-1,-1,500,0,fixation,poldrack-single-stim,486,570313,0.0-6.2-136.2,go_nogo_deval,467,,<div class = centerbox><div class = fixation>+</div></div>,none,500,test,,,,,,,,,,,,-1,-1,850,0,stim,poldrack-single-stim,487,571164,0.0-6.2-137.2,go_nogo_deval,467,,<img class = center src='/static/experiments/go_nogo_deval/images/purple_pentagon.png'></img>,32,850,test,purple_pentagon,nogo2,-1,45,2,,,,,,,-1,-1,1400,0,ITI,poldrack-single-stim,488,572566,0.0-6.2-138.2,go_nogo_deval,467,,<div></div>,32,1400,test,,,,,,,,,,,,-1,-1,500,0,fixation,poldrack-single-stim,489,573068,0.0-6.2-139.2,go_nogo_deval,467,,<div class = centerbox><div class = fixation>+</div></div>,none,500,test,,,,,,,,,,,,-1,-1,850,0,stim,poldrack-single-stim,490,573920,0.0-6.2-140.2,go_nogo_deval,467,,<img class = center src='/static/experiments/go_nogo_deval/images/purple_pentagon.png'></img>,32,850,test,purple_pentagon,nogo2,-1,46,2,,,,,,,-1,-1,1400,0,ITI,poldrack-single-stim,491,575321,0.0-6.2-141.2,go_nogo_deval,467,,<div></div>,32,1400,test,,,,,,,,,,,,-1,-1,500,0,fixation,poldrack-single-stim,492,575823,0.0-6.2-142.2,go_nogo_deval,467,,<div class = centerbox><div class = fixation>+</div></div>,none,500,test,,,,,,,,,,,,459,32,850,0,stim,poldrack-single-stim,493,576675,0.0-6.2-143.2,go_nogo_deval,467,,<img class = center src='/static/experiments/go_nogo_deval/images/blue_circle.png'></img>,32,850,test,blue_circle,go2,32,47,2,,,,,,,-1,-1,1400,0,ITI,poldrack-single-stim,494,578077,0.0-6.2-144.2,go_nogo_deval,467,,<div></div>,32,1400,test,,,,,,,,,,,,4017,13,4017,0,practice-no-stop-feedback,poldrack-single-stim,495,582098,0.0-6.3-0.3,go_nogo_deval,467,,<div class = centerbox><p class = block-text><br>Please take this time to read your feedback and to take a short break! Press enter to continue</p><p class = block-text><strong>Average reaction time:  417 ms. Accuracy: 100%</strong></p></div>,13,4017,,,,,,,,,,,,,-1,-1,500,0,fixation,poldrack-single-stim,496,582599,0.0-6.3-1.3,go_nogo_deval,467,,<div class = centerbox><div class = fixation>+</div></div>,none,500,test,,,,,,,,,,,,499,32,850,0,stim,poldrack-single-stim,497,583451,0.0-6.3-2.3,go_nogo_deval,467,,<img class = center src='/static/experiments/go_nogo_deval/images/red_triangle.png'></img>,32,850,test,red_triangle,go1,32,0,3,,,,,,,-1,-1,1400,0,ITI,poldrack-single-stim,498,584853,0.0-6.3-3.3,go_nogo_deval,467,,<div></div>,32,1400,test,,,,,,,,,,,,-1,-1,500,0,fixation,poldrack-single-stim,499,585354,0.0-6.3-4.3,go_nogo_deval,467,,<div class = centerbox><div class = fixation>+</div></div>,none,500,test,,,,,,,,,,,,399,32,850,0,stim,poldrack-single-stim,500,586206,0.0-6.3-5.3,go_nogo_deval,467,,<img class = center src='/static/experiments/go_nogo_deval/images/red_triangle.png'></img>,32,850,test,red_triangle,go1,32,1,3,,,,,,,-1,-1,1400,0,ITI,poldrack-single-stim,501,587608,0.0-6.3-6.3,go_nogo_deval,467,,<div></div>,32,1400,test,,,,,,,,,,,,-1,-1,500,0,fixation,poldrack-single-stim,502,588110,0.0-6.3-7.3,go_nogo_deval,467,,<div class = centerbox><div class = fixation>+</div></div>,none,500,test,,,,,,,,,,,,-1,-1,850,0,stim,poldrack-single-stim,503,588961,0.0-6.3-8.3,go_nogo_deval,467,,<img class = center src='/static/experiments/go_nogo_deval/images/purple_pentagon.png'></img>,32,850,test,purple_pentagon,nogo2,-1,2,3,,,,,,,-1,-1,1400,0,ITI,poldrack-single-stim,504,590363,0.0-6.3-9.3,go_nogo_deval,467,,<div></div>,32,1400,test,,,,,,,,,,,,-1,-1,500,0,fixation,poldrack-single-stim,505,590864,0.0-6.3-10.3,go_nogo_deval,467,,<div class = centerbox><div class = fixation>+</div></div>,none,500,test,,,,,,,,,,,,-1,-1,850,0,stim,poldrack-single-stim,506,591716,0.0-6.3-11.3,go_nogo_deval,467,,<img class = center src='/static/experiments/go_nogo_deval/images/purple_pentagon.png'></img>,32,850,test,purple_pentagon,nogo2,-1,3,3,,,,,,,-1,-1,1400,0,ITI,poldrack-single-stim,507,593117,0.0-6.3-12.3,go_nogo_deval,467,,<div></div>,32,1400,test,,,,,,,,,,,,-1,-1,500,0,fixation,poldrack-single-stim,508,593619,0.0-6.3-13.3,go_nogo_deval,467,,<div class = centerbox><div class = fixation>+</div></div>,none,500,test,,,,,,,,,,,,-1,-1,850,0,stim,poldrack-single-stim,509,594470,0.0-6.3-14.3,go_nogo_deval,467,,<img class = center src='/static/experiments/go_nogo_deval/images/green_rhombus.png'></img>,32,850,test,green_rhombus,nogo1,-1,4,3,,,,,,,-1,-1,1400,0,ITI,poldrack-single-stim,510,595872,0.0-6.3-15.3,go_nogo_deval,467,,<div></div>,32,1400,test,,,,,,,,,,,,-1,-1,500,0,fixation,poldrack-single-stim,511,596373,0.0-6.3-16.3,go_nogo_deval,467,,<div class = centerbox><div class = fixation>+</div></div>,none,500,test,,,,,,,,,,,,-1,-1,850,0,stim,poldrack-single-stim,512,597225,0.0-6.3-17.3,go_nogo_deval,467,,<img class = center src='/static/experiments/go_nogo_deval/images/purple_pentagon.png'></img>,32,850,test,purple_pentagon,nogo2,-1,5,3,,,,,,,-1,-1,1400,0,ITI,poldrack-single-stim,513,598626,0.0-6.3-18.3,go_nogo_deval,467,,<div></div>,32,1400,test,,,,,,,,,,,,-1,-1,500,0,fixation,poldrack-single-stim,514,599128,0.0-6.3-19.3,go_nogo_deval,467,,<div class = centerbox><div class = fixation>+</div></div>,none,500,test,,,,,,,,,,,,531,32,850,0,stim,poldrack-single-stim,515,599979,0.0-6.3-20.3,go_nogo_deval,467,,<img class = center src='/static/experiments/go_nogo_deval/images/blue_circle.png'></img>,32,850,test,blue_circle,go2,32,6,3,,,,,,,-1,-1,1400,0,ITI,poldrack-single-stim,516,601381,0.0-6.3-21.3,go_nogo_deval,467,,<div></div>,32,1400,test,,,,,,,,,,,,-1,-1,500,0,fixation,poldrack-single-stim,517,601883,0.0-6.3-22.3,go_nogo_deval,467,,<div class = centerbox><div class = fixation>+</div></div>,none,500,test,,,,,,,,,,,,521,32,850,0,stim,poldrack-single-stim,518,602734,0.0-6.3-23.3,go_nogo_deval,467,,<img class = center src='/static/experiments/go_nogo_deval/images/blue_circle.png'></img>,32,850,test,blue_circle,go2,32,7,3,,,,,,,-1,-1,1400,0,ITI,poldrack-single-stim,519,604136,0.0-6.3-24.3,go_nogo_deval,467,,<div></div>,32,1400,test,,,,,,,,,,,,-1,-1,500,0,fixation,poldrack-single-stim,520,604637,0.0-6.3-25.3,go_nogo_deval,467,,<div class = centerbox><div class = fixation>+</div></div>,none,500,test,,,,,,,,,,,,433,32,850,0,stim,poldrack-single-stim,521,605489,0.0-6.3-26.3,go_nogo_deval,467,,<img class = center src='/static/experiments/go_nogo_deval/images/blue_circle.png'></img>,32,850,test,blue_circle,go2,32,8,3,,,,,,,-1,-1,1400,0,ITI,poldrack-single-stim,522,606891,0.0-6.3-27.3,go_nogo_deval,467,,<div></div>,32,1400,test,,,,,,,,,,,,-1,-1,500,0,fixation,poldrack-single-stim,523,607391,0.0-6.3-28.3,go_nogo_deval,467,,<div class = centerbox><div class = fixation>+</div></div>,none,500,test,,,,,,,,,,,,367,32,850,0,stim,poldrack-single-stim,524,608243,0.0-6.3-29.3,go_nogo_deval,467,,<img class = center src='/static/experiments/go_nogo_deval/images/red_triangle.png'></img>,32,850,test,red_triangle,go1,32,9,3,,,,,,,-1,-1,1400,0,ITI,poldrack-single-stim,525,609645,0.0-6.3-30.3,go_nogo_deval,467,,<div></div>,32,1400,test,,,,,,,,,,,,-1,-1,500,0,fixation,poldrack-single-stim,526,610147,0.0-6.3-31.3,go_nogo_deval,467,,<div class = centerbox><div class = fixation>+</div></div>,none,500,test,,,,,,,,,,,,403,32,850,0,stim,poldrack-single-stim,527,610999,0.0-6.3-32.3,go_nogo_deval,467,,<img class = center src='/static/experiments/go_nogo_deval/images/blue_circle.png'></img>,32,850,test,blue_circle,go2,32,10,3,,,,,,,-1,-1,1400,0,ITI,poldrack-single-stim,528,612401,0.0-6.3-33.3,go_nogo_deval,467,,<div></div>,32,1400,test,,,,,,,,,,,,-1,-1,500,0,fixation,poldrack-single-stim,529,612902,0.0-6.3-34.3,go_nogo_deval,467,,<div class = centerbox><div class = fixation>+</div></div>,none,500,test,,,,,,,,,,,,369,32,850,0,stim,poldrack-single-stim,530,613753,0.0-6.3-35.3,go_nogo_deval,467,,<img class = center src='/static/experiments/go_nogo_deval/images/red_triangle.png'></img>,32,850,test,red_triangle,go1,32,11,3,,,,,,,-1,-1,1400,0,ITI,poldrack-single-stim,531,615155,0.0-6.3-36.3,go_nogo_deval,467,,<div></div>,32,1400,test,,,,,,,,,,,,-1,-1,500,0,fixation,poldrack-single-stim,532,615657,0.0-6.3-37.3,go_nogo_deval,467,,<div class = centerbox><div class = fixation>+</div></div>,none,500,test,,,,,,,,,,,,405,32,850,0,stim,poldrack-single-stim,533,616509,0.0-6.3-38.3,go_nogo_deval,467,,<img class = center src='/static/experiments/go_nogo_deval/images/blue_circle.png'></img>,32,850,test,blue_circle,go2,32,12,3,,,,,,,-1,-1,1400,0,ITI,poldrack-single-stim,534,617911,0.0-6.3-39.3,go_nogo_deval,467,,<div></div>,32,1400,test,,,,,,,,,,,,-1,-1,500,0,fixation,poldrack-single-stim,535,618412,0.0-6.3-40.3,go_nogo_deval,467,,<div class = centerbox><div class = fixation>+</div></div>,none,500,test,,,,,,,,,,,,461,32,850,0,stim,poldrack-single-stim,536,619264,0.0-6.3-41.3,go_nogo_deval,467,,<img class = center src='/static/experiments/go_nogo_deval/images/blue_circle.png'></img>,32,850,test,blue_circle,go2,32,13,3,,,,,,,-1,-1,1400,0,ITI,poldrack-single-stim,537,620666,0.0-6.3-42.3,go_nogo_deval,467,,<div></div>,32,1400,test,,,,,,,,,,,,-1,-1,500,0,fixation,poldrack-single-stim,538,621167,0.0-6.3-43.3,go_nogo_deval,467,,<div class = centerbox><div class = fixation>+</div></div>,none,500,test,,,,,,,,,,,,408,32,850,0,stim,poldrack-single-stim,539,622019,0.0-6.3-44.3,go_nogo_deval,467,,<img class = center src='/static/experiments/go_nogo_deval/images/red_triangle.png'></img>,32,850,test,red_triangle,go1,32,14,3,,,,,,,-1,-1,1400,0,ITI,poldrack-single-stim,540,623421,0.0-6.3-45.3,go_nogo_deval,467,,<div></div>,32,1400,test,,,,,,,,,,,,-1,-1,500,0,fixation,poldrack-single-stim,541,623923,0.0-6.3-46.3,go_nogo_deval,467,,<div class = centerbox><div class = fixation>+</div></div>,none,500,test,,,,,,,,,,,,-1,-1,850,0,stim,poldrack-single-stim,542,624774,0.0-6.3-47.3,go_nogo_deval,467,,<img class = center src='/static/experiments/go_nogo_deval/images/green_rhombus.png'></img>,32,850,test,green_rhombus,nogo1,-1,15,3,,,,,,,-1,-1,1400,0,ITI,poldrack-single-stim,543,626175,0.0-6.3-48.3,go_nogo_deval,467,,<div></div>,32,1400,test,,,,,,,,,,,,-1,-1,500,0,fixation,poldrack-single-stim,544,626677,0.0-6.3-49.3,go_nogo_deval,467,,<div class = centerbox><div class = fixation>+</div></div>,none,500,test,,,,,,,,,,,,-1,-1,850,0,stim,poldrack-single-stim,545,627528,0.0-6.3-50.3,go_nogo_deval,467,,<img class = center src='/static/experiments/go_nogo_deval/images/green_rhombus.png'></img>,32,850,test,green_rhombus,nogo1,-1,16,3,,,,,,,-1,-1,1400,0,ITI,poldrack-single-stim,546,628930,0.0-6.3-51.3,go_nogo_deval,467,,<div></div>,32,1400,test,,,,,,,,,,,,-1,-1,500,0,fixation,poldrack-single-stim,547,629432,0.0-6.3-52.3,go_nogo_deval,467,,<div class = centerbox><div class = fixation>+</div></div>,none,500,test,,,,,,,,,,,,377,32,850,0,stim,poldrack-single-stim,548,630283,0.0-6.3-53.3,go_nogo_deval,467,,<img class = center src='/static/experiments/go_nogo_deval/images/red_triangle.png'></img>,32,850,test,red_triangle,go1,32,17,3,,,,,,,-1,-1,1400,0,ITI,poldrack-single-stim,549,631684,0.0-6.3-54.3,go_nogo_deval,467,,<div></div>,32,1400,test,,,,,,,,,,,,-1,-1,500,0,fixation,poldrack-single-stim,550,632186,0.0-6.3-55.3,go_nogo_deval,467,,<div class = centerbox><div class = fixation>+</div></div>,none,500,test,,,,,,,,,,,,-1,-1,850,0,stim,poldrack-single-stim,551,633037,0.0-6.3-56.3,go_nogo_deval,467,,<img class = center src='/static/experiments/go_nogo_deval/images/green_rhombus.png'></img>,32,850,test,green_rhombus,nogo1,-1,18,3,,,,,,,-1,-1,1400,0,ITI,poldrack-single-stim,552,634438,0.0-6.3-57.3,go_nogo_deval,467,,<div></div>,32,1400,test,,,,,,,,,,,,-1,-1,500,0,fixation,poldrack-single-stim,553,634939,0.0-6.3-58.3,go_nogo_deval,467,,<div class = centerbox><div class = fixation>+</div></div>,none,500,test,,,,,,,,,,,,483,32,850,0,stim,poldrack-single-stim,554,635791,0.0-6.3-59.3,go_nogo_deval,467,,<img class = center src='/static/experiments/go_nogo_deval/images/blue_circle.png'></img>,32,850,test,blue_circle,go2,32,19,3,,,,,,,-1,-1,1400,0,ITI,poldrack-single-stim,555,637193,0.0-6.3-60.3,go_nogo_deval,467,,<div></div>,32,1400,test,,,,,,,,,,,,-1,-1,500,0,fixation,poldrack-single-stim,556,637694,0.0-6.3-61.3,go_nogo_deval,467,,<div class = centerbox><div class = fixation>+</div></div>,none,500,test,,,,,,,,,,,,-1,-1,850,0,stim,poldrack-single-stim,557,638545,0.0-6.3-62.3,go_nogo_deval,467,,<img class = center src='/static/experiments/go_nogo_deval/images/purple_pentagon.png'></img>,32,850,test,purple_pentagon,nogo2,-1,20,3,,,,,,,-1,-1,1400,0,ITI,poldrack-single-stim,558,639947,0.0-6.3-63.3,go_nogo_deval,467,,<div></div>,32,1400,test,,,,,,,,,,,,-1,-1,500,0,fixation,poldrack-single-stim,559,640449,0.0-6.3-64.3,go_nogo_deval,467,,<div class = centerbox><div class = fixation>+</div></div>,none,500,test,,,,,,,,,,,,577,32,850,0,stim,poldrack-single-stim,560,641301,0.0-6.3-65.3,go_nogo_deval,467,,<img class = center src='/static/experiments/go_nogo_deval/images/blue_circle.png'></img>,32,850,test,blue_circle,go2,32,21,3,,,,,,,-1,-1,1400,0,ITI,poldrack-single-stim,561,642701,0.0-6.3-66.3,go_nogo_deval,467,,<div></div>,32,1400,test,,,,,,,,,,,,-1,-1,500,0,fixation,poldrack-single-stim,562,643202,0.0-6.3-67.3,go_nogo_deval,467,,<div class = centerbox><div class = fixation>+</div></div>,none,500,test,,,,,,,,,,,,-1,-1,850,0,stim,poldrack-single-stim,563,644054,0.0-6.3-68.3,go_nogo_deval,467,,<img class = center src='/static/experiments/go_nogo_deval/images/purple_pentagon.png'></img>,32,850,test,purple_pentagon,nogo2,-1,22,3,,,,,,,-1,-1,1400,0,ITI,poldrack-single-stim,564,645456,0.0-6.3-69.3,go_nogo_deval,467,,<div></div>,32,1400,test,,,,,,,,,,,,-1,-1,500,0,fixation,poldrack-single-stim,565,645956,0.0-6.3-70.3,go_nogo_deval,467,,<div class = centerbox><div class = fixation>+</div></div>,none,500,test,,,,,,,,,,,,-1,-1,850,0,stim,poldrack-single-stim,566,646808,0.0-6.3-71.3,go_nogo_deval,467,,<img class = center src='/static/experiments/go_nogo_deval/images/green_rhombus.png'></img>,32,850,test,green_rhombus,nogo1,-1,23,3,,,,,,,-1,-1,1400,0,ITI,poldrack-single-stim,567,648210,0.0-6.3-72.3,go_nogo_deval,467,,<div></div>,32,1400,test,,,,,,,,,,,,-1,-1,500,0,fixation,poldrack-single-stim,568,648712,0.0-6.3-73.3,go_nogo_deval,467,,<div class = centerbox><div class = fixation>+</div></div>,none,500,test,,,,,,,,,,,,-1,-1,850,0,stim,poldrack-single-stim,569,649563,0.0-6.3-74.3,go_nogo_deval,467,,<img class = center src='/static/experiments/go_nogo_deval/images/purple_pentagon.png'></img>,32,850,test,purple_pentagon,nogo2,-1,24,3,,,,,,,-1,-1,1400,0,ITI,poldrack-single-stim,570,650964,0.0-6.3-75.3,go_nogo_deval,467,,<div></div>,32,1400,test,,,,,,,,,,,,-1,-1,500,0,fixation,poldrack-single-stim,571,651466,0.0-6.3-76.3,go_nogo_deval,467,,<div class = centerbox><div class = fixation>+</div></div>,none,500,test,,,,,,,,,,,,404,32,850,0,stim,poldrack-single-stim,572,652317,0.0-6.3-77.3,go_nogo_deval,467,,<img class = center src='/static/experiments/go_nogo_deval/images/red_triangle.png'></img>,32,850,test,red_triangle,go1,32,25,3,,,,,,