text,rt,key_press,block_duration,timing_post_trial,trial_id,trial_type,trial_index,time_elapsed,internal_node_id,exp_id,subject_ID,view_history,stimulus,possible_responses,stim_duration,exp_stage,stim,go_nogo_type,correct_response,current_trial,current_block,chosenStim,chosenCond,stimLeft,cond_left,stimRight,cond_right<div class = centerbox><p class = center-block-text>Welcome to the task!</p><p class = center-block-text>Press<strong> enter</strong> to continue.</p></div>,2106,13,2106,0,welcome,poldrack-text,0,2108,0.0-0.0,go_nogo_deval,438,,,,,,,,,,,,,,,,,51730,,,,instruction,poldrack-instructions,1,53839,0.0-1.0,go_nogo_deval,438,"[{""page_index"":0,""viewing_time"":3692},{""page_index"":1,""viewing_time"":48037}]",,,,,,,,,,,,,,,,13113,13,13113,0,stop_intro_phase1,poldrack-single-stim,2,67954,0.0-2.0,go_nogo_deval,438,,"<div class = centerbox><p class = block-text>We will now start the practice for the experiment.<br><br>For these trials, you must press the <strong>spacebar </strong> or have <strong>no response</strong> depending on the shape of the stimulus.  Make sure to respond as quickly and accurately as possible to the shape. <br><br> The responses for each shape are as follows: <ul list-text><li>pentagon: spacebar</li><li>rhombus: spacebar</li><li>circle: no response</li><li>triangle: no response</li></ul></p><p class = block-text>Remember these rules before you proceed.</p><p class = block-text>Press <strong> enter</strong> to begin.</p></div>",13,13113,,,,,,,,,,,,,2158,13,2158,0,practice-no-stop-feedback,poldrack-single-stim,3,70114,0.0-3.0-0.0,go_nogo_deval,438,,<div class = centerbox><p class = block-text>We will now start with a practice session. In this practice concentrate on responding quickly and accurately to each stimuli unless it requires no response.</p><p class = block-text>Press enter to continue.</p></div>,13,2158,,,,,,,,,,,,,-1,-1,500,0,prompt_fixation,poldrack-single-stim,4,70617,0.0-3.0-1.0,go_nogo_deval,438,,<div class = centerbox><div class = fixation>+</div></div>,none,500,practice,,,,,,,,,,,,756,32,850,0,stim,poldrack-single-stim,5,71469,0.0-3.0-2.0,go_nogo_deval,438,,<img class = center src='/static/experiments/go_nogo_deval/images/red_rhombus.png'></img>,32,850,practice,red_rhombus,go2,32,0,0,,,,,,,-1,-1,1400,0,ITI,poldrack-single-stim,6,72872,0.0-3.0-3.0,go_nogo_deval,438,,<div></div>,32,1400,practice,,,,,,,,,,,,-1,-1,500,0,prompt_fixation,poldrack-single-stim,7,73374,0.0-3.0-4.0,go_nogo_deval,438,,<div class = centerbox><div class = fixation>+</div></div>,none,500,practice,,,,,,,,,,,,462,32,850,0,stim,poldrack-single-stim,8,74226,0.0-3.0-5.0,go_nogo_deval,438,,<img class = center src='/static/experiments/go_nogo_deval/images/green_triangle.png'></img>,32,850,practice,green_triangle,nogo2,-1,1,0,,,,,,,-1,-1,1400,0,ITI,poldrack-single-stim,9,75628,0.0-3.0-6.0,go_nogo_deval,438,,<div></div>,32,1400,practice,,,,,,,,,,,,-1,-1,500,0,prompt_fixation,poldrack-single-stim,10,76129,0.0-3.0-7.0,go_nogo_deval,438,,<div class = centerbox><div class = fixation>+</div></div>,none,500,practice,,,,,,,,,,,,767,32,850,0,stim,poldrack-single-stim,11,76981,0.0-3.0-8.0,go_nogo_deval,438,,<img class = center src='/static/experiments/go_nogo_deval/images/red_rhombus.png'></img>,32,850,practice,red_rhombus,go2,32,2,0,,,,,,,-1,-1,1400,0,ITI,poldrack-single-stim,12,78384,0.0-3.0-9.0,go_nogo_deval,438,,<div></div>,32,1400,practice,,,,,,,,,,,,-1,-1,500,0,prompt_fixation,poldrack-single-stim,13,78886,0.0-3.0-10.0,go_nogo_deval,438,,<div class = centerbox><div class = fixation>+</div></div>,none,500,practice,,,,,,,,,,,,655,32,850,0,stim,poldrack-single-stim,14,79737,0.0-3.0-11.0,go_nogo_deval,438,,<img class = center src='/static/experiments/go_nogo_deval/images/red_rhombus.png'></img>,32,850,practice,red_rhombus,go2,32,3,0,,,,,,,-1,-1,1400,0,ITI,poldrack-single-stim,15,81140,0.0-3.0-12.0,go_nogo_deval,438,,<div></div>,32,1400,practice,,,,,,,,,,,,-1,-1,500,0,prompt_fixation,poldrack-single-stim,16,81642,0.0-3.0-13.0,go_nogo_deval,438,,<div class = centerbox><div class = fixation>+</div></div>,none,500,practice,,,,,,,,,,,,-1,-1,850,0,stim,poldrack-single-stim,17,82494,0.0-3.0-14.0,go_nogo_deval,438,,<img class = center src='/static/experiments/go_nogo_deval/images/purple_circle.png'></img>,32,850,practice,purple_circle,nogo1,-1,4,0,,,,,,,-1,-1,1400,0,ITI,poldrack-single-stim,18,83896,0.0-3.0-15.0,go_nogo_deval,438,,<div></div>,32,1400,practice,,,,,,,,,,,,-1,-1,500,0,prompt_fixation,poldrack-single-stim,19,84398,0.0-3.0-16.0,go_nogo_deval,438,,<div class = centerbox><div class = fixation>+</div></div>,none,500,practice,,,,,,,,,,,,-1,-1,850,0,stim,poldrack-single-stim,20,85250,0.0-3.0-17.0,go_nogo_deval,438,,<img class = center src='/static/experiments/go_nogo_deval/images/green_triangle.png'></img>,32,850,practice,green_triangle,nogo2,-1,5,0,,,,,,,-1,-1,1400,0,ITI,poldrack-single-stim,21,86651,0.0-3.0-18.0,go_nogo_deval,438,,<div></div>,32,1400,practice,,,,,,,,,,,,-1,-1,500,0,prompt_fixation,poldrack-single-stim,22,87153,0.0-3.0-19.0,go_nogo_deval,438,,<div class = centerbox><div class = fixation>+</div></div>,none,500,practice,,,,,,,,,,,,610,32,850,0,stim,poldrack-single-stim,23,88005,0.0-3.0-20.0,go_nogo_deval,438,,<img class = center src='/static/experiments/go_nogo_deval/images/blue_pentagon.png'></img>,32,850,practice,blue_pentagon,go1,32,6,0,,,,,,,-1,-1,1400,0,ITI,poldrack-single-stim,24,89407,0.0-3.0-21.0,go_nogo_deval,438,,<div></div>,32,1400,practice,,,,,,,,,,,,-1,-1,500,0,prompt_fixation,poldrack-single-stim,25,89909,0.0-3.0-22.0,go_nogo_deval,438,,<div class = centerbox><div class = fixation>+</div></div>,none,500,practice,,,,,,,,,,,,455,32,850,0,stim,poldrack-single-stim,26,90761,0.0-3.0-23.0,go_nogo_deval,438,,<img class = center src='/static/experiments/go_nogo_deval/images/blue_pentagon.png'></img>,32,850,practice,blue_pentagon,go1,32,7,0,,,,,,,-1,-1,1400,0,ITI,poldrack-single-stim,27,92163,0.0-3.0-24.0,go_nogo_deval,438,,<div></div>,32,1400,practice,,,,,,,,,,,,-1,-1,500,0,prompt_fixation,poldrack-single-stim,28,92664,0.0-3.0-25.0,go_nogo_deval,438,,<div class = centerbox><div class = fixation>+</div></div>,none,500,practice,,,,,,,,,,,,455,32,850,0,stim,poldrack-single-stim,29,93516,0.0-3.0-26.0,go_nogo_deval,438,,<img class = center src='/static/experiments/go_nogo_deval/images/blue_pentagon.png'></img>,32,850,practice,blue_pentagon,go1,32,8,0,,,,,,,-1,-1,1400,0,ITI,poldrack-single-stim,30,94918,0.0-3.0-27.0,go_nogo_deval,438,,<div></div>,32,1400,practice,,,,,,,,,,,,-1,-1,500,0,prompt_fixation,poldrack-single-stim,31,95419,0.0-3.0-28.0,go_nogo_deval,438,,<div class = centerbox><div class = fixation>+</div></div>,none,500,practice,,,,,,,,,,,,-1,-1,850,0,stim,poldrack-single-stim,32,96271,0.0-3.0-29.0,go_nogo_deval,438,,<img class = center src='/static/experiments/go_nogo_deval/images/purple_circle.png'></img>,32,850,practice,purple_circle,nogo1,-1,9,0,,,,,,,-1,-1,1400,0,ITI,poldrack-single-stim,33,97673,0.0-3.0-30.0,go_nogo_deval,438,,<div></div>,32,1400,practice,,,,,,,,,,,,-1,-1,500,0,prompt_fixation,poldrack-single-stim,34,98175,0.0-3.0-31.0,go_nogo_deval,438,,<div class = centerbox><div class = fixation>+</div></div>,none,500,practice,,,,,,,,,,,,-1,-1,850,0,stim,poldrack-single-stim,35,99027,0.0-3.0-32.0,go_nogo_deval,438,,<img class = center src='/static/experiments/go_nogo_deval/images/green_triangle.png'></img>,32,850,practice,green_triangle,nogo2,-1,10,0,,,,,,,-1,-1,1400,0,ITI,poldrack-single-stim,36,100429,0.0-3.0-33.0,go_nogo_deval,438,,<div></div>,32,1400,practice,,,,,,,,,,,,-1,-1,500,0,prompt_fixation,poldrack-single-stim,37,100929,0.0-3.0-34.0,go_nogo_deval,438,,<div class = centerbox><div class = fixation>+</div></div>,none,500,practice,,,,,,,,,,,,-1,-1,850,0,stim,poldrack-single-stim,38,101781,0.0-3.0-35.0,go_nogo_deval,438,,<img class = center src='/static/experiments/go_nogo_deval/images/purple_circle.png'></img>,32,850,practice,purple_circle,nogo1,-1,11,0,,,,,,,-1,-1,1400,0,ITI,poldrack-single-stim,39,103183,0.0-3.0-36.0,go_nogo_deval,438,,<div></div>,32,1400,practice,,,,,,,,,,,,-1,-1,500,0,prompt_fixation,poldrack-single-stim,40,103685,0.0-3.0-37.0,go_nogo_deval,438,,<div class = centerbox><div class = fixation>+</div></div>,none,500,practice,,,,,,,,,,,,403,32,850,0,stim,poldrack-single-stim,41,104537,0.0-3.0-38.0,go_nogo_deval,438,,<img class = center src='/static/experiments/go_nogo_deval/images/red_rhombus.png'></img>,32,850,practice,red_rhombus,go2,32,12,0,,,,,,,-1,-1,1400,0,ITI,poldrack-single-stim,42,105939,0.0-3.0-39.0,go_nogo_deval,438,,<div></div>,32,1400,practice,,,,,,,,,,,,-1,-1,500,0,prompt_fixation,poldrack-single-stim,43,106440,0.0-3.0-40.0,go_nogo_deval,438,,<div class = centerbox><div class = fixation>+</div></div>,none,500,practice,,,,,,,,,,,,460,32,850,0,stim,poldrack-single-stim,44,107292,0.0-3.0-41.0,go_nogo_deval,438,,<img class = center src='/static/experiments/go_nogo_deval/images/blue_pentagon.png'></img>,32,850,practice,blue_pentagon,go1,32,13,0,,,,,,,-1,-1,1400,0,ITI,poldrack-single-stim,45,108695,0.0-3.0-42.0,go_nogo_deval,438,,<div></div>,32,1400,practice,,,,,,,,,,,,-1,-1,500,0,prompt_fixation,poldrack-single-stim,46,109196,0.0-3.0-43.0,go_nogo_deval,438,,<div class = centerbox><div class = fixation>+</div></div>,none,500,practice,,,,,,,,,,,,505,32,850,0,stim,poldrack-single-stim,47,110048,0.0-3.0-44.0,go_nogo_deval,438,,<img class = center src='/static/experiments/go_nogo_deval/images/blue_pentagon.png'></img>,32,850,practice,blue_pentagon,go1,32,14,0,,,,,,,-1,-1,1400,0,ITI,poldrack-single-stim,48,111451,0.0-3.0-45.0,go_nogo_deval,438,,<div></div>,32,1400,practice,,,,,,,,,,,,-1,-1,500,0,prompt_fixation,poldrack-single-stim,49,111952,0.0-3.0-46.0,go_nogo_deval,438,,<div class = centerbox><div class = fixation>+</div></div>,none,500,practice,,,,,,,,,,,,595,32,850,0,stim,poldrack-single-stim,50,112804,0.0-3.0-47.0,go_nogo_deval,438,,<img class = center src='/static/experiments/go_nogo_deval/images/red_rhombus.png'></img>,32,850,practice,red_rhombus,go2,32,15,0,,,,,,,-1,-1,1400,0,ITI,poldrack-single-stim,51,114207,0.0-3.0-48.0,go_nogo_deval,438,,<div></div>,32,1400,practice,,,,,,,,,,,,-1,-1,500,0,prompt_fixation,poldrack-single-stim,52,114709,0.0-3.0-49.0,go_nogo_deval,438,,<div class = centerbox><div class = fixation>+</div></div>,none,500,practice,,,,,,,,,,,,472,32,850,0,stim,poldrack-single-stim,53,115561,0.0-3.0-50.0,go_nogo_deval,438,,<img class = center src='/static/experiments/go_nogo_deval/images/blue_pentagon.png'></img>,32,850,practice,blue_pentagon,go1,32,16,0,,,,,,,-1,-1,1400,0,ITI,poldrack-single-stim,54,116962,0.0-3.0-51.0,go_nogo_deval,438,,<div></div>,32,1400,practice,,,,,,,,,,,,-1,-1,500,0,prompt_fixation,poldrack-single-stim,55,117463,0.0-3.0-52.0,go_nogo_deval,438,,<div class = centerbox><div class = fixation>+</div></div>,none,500,practice,,,,,,,,,,,,473,32,850,0,stim,poldrack-single-stim,56,118314,0.0-3.0-53.0,go_nogo_deval,438,,<img class = center src='/static/experiments/go_nogo_deval/images/red_rhombus.png'></img>,32,850,practice,red_rhombus,go2,32,17,0,,,,,,,-1,-1,1400,0,ITI,poldrack-single-stim,57,119715,0.0-3.0-54.0,go_nogo_deval,438,,<div></div>,32,1400,practice,,,,,,,,,,,,9133,13,9133,0,practice-no-stop-feedback,poldrack-single-stim,58,128851,0.0-4.0,go_nogo_deval,438,,<div class = centerbox><p class = block-text><br>Please take this time to read your feedback and to take a short break! Press enter to continue</p><p class = block-text><strong>Average reaction time:  544 ms. Accuracy: 94%</strong></p><p class = block-text>Done with this practice.</p></div>,13,9133,,,,,,,,,,,,,50118,13,50118,0,main_stop_intro_phase3,poldrack-single-stim,59,178970,0.0-5.0,go_nogo_deval,438,,"<div class = centerbox><p class = block-text>We will now start the main phase of the experiment.<br><br>These trials are the same as the trials that you have just completed. <br><br>The rules for each shape are as follows:  <br><ul list-text><li>pentagon: spacebar</li><li>rhombus: spacebar</li><li>circle: no response</li><li>triangle: no response</li></ul></p><p class = block-text>Remember these rules before you proceed, as they will no longer be presented during the trial.</p><p class = block-text>Press <strong> enter</strong> to begin.</p></div>",13,50118,,,,,,,,,,,,,1011,13,1011,0,practice-no-stop-feedback,poldrack-single-stim,60,179982,0.0-6.0-0.0,go_nogo_deval,438,,"<div class = centerbox><p class = block-text>We will now start with a test session. In this test, concentrate on responding quickly and accurately to each stimuli unless it requires no response.</p><p class = block-text>Press enter to continue.</p></div>",13,1011,,,,,,,,,,,,,-1,-1,500,0,fixation,poldrack-single-stim,61,180483,0.0-6.0-1.0,go_nogo_deval,438,,<div class = centerbox><div class = fixation>+</div></div>,none,500,test,,,,,,,,,,,,465,32,850,0,stim,poldrack-single-stim,62,181334,0.0-6.0-2.0,go_nogo_deval,438,,<img class = center src='/static/experiments/go_nogo_deval/images/blue_pentagon.png'></img>,32,850,test,blue_pentagon,go1,32,0,0,,,,,,,-1,-1,1400,0,ITI,poldrack-single-stim,63,182735,0.0-6.0-3.0,go_nogo_deval,438,,<div></div>,32,1400,test,,,,,,,,,,,,-1,-1,500,0,fixation,poldrack-single-stim,64,183237,0.0-6.0-4.0,go_nogo_deval,438,,<div class = centerbox><div class = fixation>+</div></div>,none,500,test,,,,,,,,,,,,356,32,850,0,stim,poldrack-single-stim,65,184088,0.0-6.0-5.0,go_nogo_deval,438,,<img class = center src='/static/experiments/go_nogo_deval/images/blue_pentagon.png'></img>,32,850,test,blue_pentagon,go1,32,1,0,,,,,,,-1,-1,1400,0,ITI,poldrack-single-stim,66,185490,0.0-6.0-6.0,go_nogo_deval,438,,<div></div>,32,1400,test,,,,,,,,,,,,-1,-1,500,0,fixation,poldrack-single-stim,67,185991,0.0-6.0-7.0,go_nogo_deval,438,,<div class = centerbox><div class = fixation>+</div></div>,none,500,test,,,,,,,,,,,,368,32,850,0,stim,poldrack-single-stim,68,186843,0.0-6.0-8.0,go_nogo_deval,438,,<img class = center src='/static/experiments/go_nogo_deval/images/blue_pentagon.png'></img>,32,850,test,blue_pentagon,go1,32,2,0,,,,,,,-1,-1,1400,0,ITI,poldrack-single-stim,69,188244,0.0-6.0-9.0,go_nogo_deval,438,,<div></div>,32,1400,test,,,,,,,,,,,,-1,-1,500,0,fixation,poldrack-single-stim,70,188746,0.0-6.0-10.0,go_nogo_deval,438,,<div class = centerbox><div class = fixation>+</div></div>,none,500,test,,,,,,,,,,,,315,32,850,0,stim,poldrack-single-stim,71,189597,0.0-6.0-11.0,go_nogo_deval,438,,<img class = center src='/static/experiments/go_nogo_deval/images/blue_pentagon.png'></img>,32,850,test,blue_pentagon,go1,32,3,0,,,,,,,-1,-1,1400,0,ITI,poldrack-single-stim,72,190998,0.0-6.0-12.0,go_nogo_deval,438,,<div></div>,32,1400,test,,,,,,,,,,,,-1,-1,500,0,fixation,poldrack-single-stim,73,191500,0.0-6.0-13.0,go_nogo_deval,438,,<div class = centerbox><div class = fixation>+</div></div>,none,500,test,,,,,,,,,,,,339,32,850,0,stim,poldrack-single-stim,74,192352,0.0-6.0-14.0,go_nogo_deval,438,,<img class = center src='/static/experiments/go_nogo_deval/images/blue_pentagon.png'></img>,32,850,test,blue_pentagon,go1,32,4,0,,,,,,,-1,-1,1400,0,ITI,poldrack-single-stim,75,193753,0.0-6.0-15.0,go_nogo_deval,438,,<div></div>,32,1400,test,,,,,,,,,,,,-1,-1,500,0,fixation,poldrack-single-stim,76,194255,0.0-6.0-16.0,go_nogo_deval,438,,<div class = centerbox><div class = fixation>+</div></div>,none,500,test,,,,,,,,,,,,295,32,850,0,stim,poldrack-single-stim,77,195105,0.0-6.0-17.0,go_nogo_deval,438,,<img class = center src='/static/experiments/go_nogo_deval/images/blue_pentagon.png'></img>,32,850,test,blue_pentagon,go1,32,5,0,,,,,,,-1,-1,1400,0,ITI,poldrack-single-stim,78,196506,0.0-6.0-18.0,go_nogo_deval,438,,<div></div>,32,1400,test,,,,,,,,,,,,-1,-1,500,0,fixation,poldrack-single-stim,79,197008,0.0-6.0-19.0,go_nogo_deval,438,,<div class = centerbox><div class = fixation>+</div></div>,none,500,test,,,,,,,,,,,,-1,-1,850,0,stim,poldrack-single-stim,80,197859,0.0-6.0-20.0,go_nogo_deval,438,,<img class = center src='/static/experiments/go_nogo_deval/images/purple_circle.png'></img>,32,850,test,purple_circle,nogo1,-1,6,0,,,,,,,-1,-1,1400,0,ITI,poldrack-single-stim,81,199261,0.0-6.0-21.0,go_nogo_deval,438,,<div></div>,32,1400,test,,,,,,,,,,,,-1,-1,500,0,fixation,poldrack-single-stim,82,199763,0.0-6.0-22.0,go_nogo_deval,438,,<div class = centerbox><div class = fixation>+</div></div>,none,500,test,,,,,,,,,,,,-1,-1,850,0,stim,poldrack-single-stim,83,200614,0.0-6.0-23.0,go_nogo_deval,438,,<img class = center src='/static/experiments/go_nogo_deval/images/purple_circle.png'></img>,32,850,test,purple_circle,nogo1,-1,7,0,,,,,,,-1,-1,1400,0,ITI,poldrack-single-stim,84,202016,0.0-6.0-24.0,go_nogo_deval,438,,<div></div>,32,1400,test,,,,,,,,,,,,-1,-1,500,0,fixation,poldrack-single-stim,85,202517,0.0-6.0-25.0,go_nogo_deval,438,,<div class = centerbox><div class = fixation>+</div></div>,none,500,test,,,,,,,,,,,,369,32,850,0,stim,poldrack-single-stim,86,203369,0.0-6.0-26.0,go_nogo_deval,438,,<img class = center src='/static/experiments/go_nogo_deval/images/red_rhombus.png'></img>,32,850,test,red_rhombus,go2,32,8,0,,,,,,,-1,-1,1400,0,ITI,poldrack-single-stim,87,204770,0.0-6.0-27.0,go_nogo_deval,438,,<div></div>,32,1400,test,,,,,,,,,,,,-1,-1,500,0,fixation,poldrack-single-stim,88,205272,0.0-6.0-28.0,go_nogo_deval,438,,<div class = centerbox><div class = fixation>+</div></div>,none,500,test,,,,,,,,,,,,393,32,850,0,stim,poldrack-single-stim,89,206123,0.0-6.0-29.0,go_nogo_deval,438,,<img class = center src='/static/experiments/go_nogo_deval/images/red_rhombus.png'></img>,32,850,test,red_rhombus,go2,32,9,0,,,,,,,-1,-1,1400,0,ITI,poldrack-single-stim,90,207524,0.0-6.0-30.0,go_nogo_deval,438,,<div></div>,32,1400,test,,,,,,,,,,,,-1,-1,500,0,fixation,poldrack-single-stim,91,208026,0.0-6.0-31.0,go_nogo_deval,438,,<div class = centerbox><div class = fixation>+</div></div>,none,500,test,,,,,,,,,,,,316,32,850,0,stim,poldrack-single-stim,92,208878,0.0-6.0-32.0,go_nogo_deval,438,,<img class = center src='/static/experiments/go_nogo_deval/images/red_rhombus.png'></img>,32,850,test,red_rhombus,go2,32,10,0,,,,,,,-1,-1,1400,0,ITI,poldrack-single-stim,93,210279,0.0-6.0-33.0,go_nogo_deval,438,,<div></div>,32,1400,test,,,,,,,,,,,,-1,-1,500,0,fixation,poldrack-single-stim,94,210781,0.0-6.0-34.0,go_nogo_deval,438,,<div class = centerbox><div class = fixation>+</div></div>,none,500,test,,,,,,,,,,,,-1,-1,850,0,stim,poldrack-single-stim,95,211633,0.0-6.0-35.0,go_nogo_deval,438,,<img class = center src='/static/experiments/go_nogo_deval/images/green_triangle.png'></img>,32,850,test,green_triangle,nogo2,-1,11,0,,,,,,,-1,-1,1400,0,ITI,poldrack-single-stim,96,213034,0.0-6.0-36.0,go_nogo_deval,438,,<div></div>,32,1400,test,,,,,,,,,,,,-1,-1,500,0,fixation,poldrack-single-stim,97,213535,0.0-6.0-37.0,go_nogo_deval,438,,<div class = centerbox><div class = fixation>+</div></div>,none,500,test,,,,,,,,,,,,354,32,850,0,stim,poldrack-single-stim,98,214387,0.0-6.0-38.0,go_nogo_deval,438,,<img class = center src='/static/experiments/go_nogo_deval/images/red_rhombus.png'></img>,32,850,test,red_rhombus,go2,32,12,0,,,,,,,-1,-1,1400,0,ITI,poldrack-single-stim,99,215789,0.0-6.0-39.0,go_nogo_deval,438,,<div></div>,32,1400,test,,,,,,,,,,,,-1,-1,500,0,fixation,poldrack-single-stim,100,216291,0.0-6.0-40.0,go_nogo_deval,438,,<div class = centerbox><div class = fixation>+</div></div>,none,500,test,,,,,,,,,,,,-1,-1,850,0,stim,poldrack-single-stim,101,217143,0.0-6.0-41.0,go_nogo_deval,438,,<img class = center src='/static/experiments/go_nogo_deval/images/purple_circle.png'></img>,32,850,test,purple_circle,nogo1,-1,13,0,,,,,,,-1,-1,1400,0,ITI,poldrack-single-stim,102,218545,0.0-6.0-42.0,go_nogo_deval,438,,<div></div>,32,1400,test,,,,,,,,,,,,-1,-1,500,0,fixation,poldrack-single-stim,103,219046,0.0-6.0-43.0,go_nogo_deval,438,,<div class = centerbox><div class = fixation>+</div></div>,none,500,test,,,,,,,,,,,,-1,-1,850,0,stim,poldrack-single-stim,104,219897,0.0-6.0-44.0,go_nogo_deval,438,,<img class = center src='/static/experiments/go_nogo_deval/images/green_triangle.png'></img>,32,850,test,green_triangle,nogo2,-1,14,0,,,,,,,-1,-1,1400,0,ITI,poldrack-single-stim,105,221299,0.0-6.0-45.0,go_nogo_deval,438,,<div></div>,32,1400,test,,,,,,,,,,,,-1,-1,500,0,fixation,poldrack-single-stim,106,221801,0.0-6.0-46.0,go_nogo_deval,438,,<div class = centerbox><div class = fixation>+</div></div>,none,500,test,,,,,,,,,,,,379,32,850,0,stim,poldrack-single-stim,107,222653,0.0-6.0-47.0,go_nogo_deval,438,,<img class = center src='/static/experiments/go_nogo_deval/images/blue_pentagon.png'></img>,32,850,test,blue_pentagon,go1,32,15,0,,,,,,,-1,-1,1400,0,ITI,poldrack-single-stim,108,224055,0.0-6.0-48.0,go_nogo_deval,438,,<div></div>,32,1400,test,,,,,,,,,,,,-1,-1,500,0,fixation,poldrack-single-stim,109,224557,0.0-6.0-49.0,go_nogo_deval,438,,<div class = centerbox><div class = fixation>+</div></div>,none,500,test,,,,,,,,,,,,335,32,850,0,stim,poldrack-single-stim,110,225409,0.0-6.0-50.0,go_nogo_deval,438,,<img class = center src='/static/experiments/go_nogo_deval/images/red_rhombus.png'></img>,32,850,test,red_rhombus,go2,32,16,0,,,,,,,-1,-1,1400,0,ITI,poldrack-single-stim,111,226811,0.0-6.0-51.0,go_nogo_deval,438,,<div></div>,32,1400,test,,,,,,,,,,,,-1,-1,500,0,fixation,poldrack-single-stim,112,227312,0.0-6.0-52.0,go_nogo_deval,438,,<div class = centerbox><div class = fixation>+</div></div>,none,500,test,,,,,,,,,,,,381,32,850,0,stim,poldrack-single-stim,113,228163,0.0-6.0-53.0,go_nogo_deval,438,,<img class = center src='/static/experiments/go_nogo_deval/images/red_rhombus.png'></img>,32,850,test,red_rhombus,go2,32,17,0,,,,,,,-1,-1,1400,0,ITI,poldrack-single-stim,114,229565,0.0-6.0-54.0,go_nogo_deval,438,,<div></div>,32,1400,test,,,,,,,,,,,,-1,-1,500,0,fixation,poldrack-single-stim,115,230067,0.0-6.0-55.0,go_nogo_deval,438,,<div class = centerbox><div class = fixation>+</div></div>,none,500,test,,,,,,,,,,,,-1,-1,850,0,stim,poldrack-single-stim,116,230919,0.0-6.0-56.0,go_nogo_deval,438,,<img class = center src='/static/experiments/go_nogo_deval/images/green_triangle.png'></img>,32,850,test,green_triangle,nogo2,-1,18,0,,,,,,,-1,-1,1400,0,ITI,poldrack-single-stim,117,232319,0.0-6.0-57.0,go_nogo_deval,438,,<div></div>,32,1400,test,,,,,,,,,,,,-1,-1,500,0,fixation,poldrack-single-stim,118,232821,0.0-6.0-58.0,go_nogo_deval,438,,<div class = centerbox><div class = fixation>+</div></div>,none,500,test,,,,,,,,,,,,-1,-1,850,0,stim,poldrack-single-stim,119,233673,0.0-6.0-59.0,go_nogo_deval,438,,<img class = center src='/static/experiments/go_nogo_deval/images/purple_circle.png'></img>,32,850,test,purple_circle,nogo1,-1,19,0,,,,,,,-1,-1,1400,0,ITI,poldrack-single-stim,120,235076,0.0-6.0-60.0,go_nogo_deval,438,,<div></div>,32,1400,test,,,,,,,,,,,,-1,-1,500,0,fixation,poldrack-single-stim,121,235577,0.0-6.0-61.0,go_nogo_deval,438,,<div class = centerbox><div class = fixation>+</div></div>,none,500,test,,,,,,,,,,,,543,32,850,0,stim,poldrack-single-stim,122,236429,0.0-6.0-62.0,go_nogo_deval,438,,<img class = center src='/static/experiments/go_nogo_deval/images/blue_pentagon.png'></img>,32,850,test,blue_pentagon,go1,32,20,0,,,,,,,-1,-1,1400,0,ITI,poldrack-single-stim,123,237831,0.0-6.0-63.0,go_nogo_deval,438,,<div></div>,32,1400,test,,,,,,,,,,,,-1,-1,500,0,fixation,poldrack-single-stim,124,238332,0.0-6.0-64.0,go_nogo_deval,438,,<div class = centerbox><div class = fixation>+</div></div>,none,500,test,,,,,,,,,,,,351,32,850,0,stim,poldrack-single-stim,125,239184,0.0-6.0-65.0,go_nogo_deval,438,,<img class = center src='/static/experiments/go_nogo_deval/images/blue_pentagon.png'></img>,32,850,test,blue_pentagon,go1,32,21,0,,,,,,,-1,-1,1400,0,ITI,poldrack-single-stim,126,240585,0.0-6.0-66.0,go_nogo_deval,438,,<div></div>,32,1400,test,,,,,,,,,,,,-1,-1,500,0,fixation,poldrack-single-stim,127,241087,0.0-6.0-67.0,go_nogo_deval,438,,<div class = centerbox><div class = fixation>+</div></div>,none,500,test,,,,,,,,,,,,386,32,850,0,stim,poldrack-single-stim,128,241938,0.0-6.0-68.0,go_nogo_deval,438,,<img class = center src='/static/experiments/go_nogo_deval/images/blue_pentagon.png'></img>,32,850,test,blue_pentagon,go1,32,22,0,,,,,,,-1,-1,1400,0,ITI,poldrack-single-stim,129,243340,0.0-6.0-69.0,go_nogo_deval,438,,<div></div>,32,1400,test,,,,,,,,,,,,-1,-1,500,0,fixation,poldrack-single-stim,130,243842,0.0-6.0-70.0,go_nogo_deval,438,,<div class = centerbox><div class = fixation>+</div></div>,none,500,test,,,,,,,,,,,,-1,-1,850,0,stim,poldrack-single-stim,131,244694,0.0-6.0-71.0,go_nogo_deval,438,,<img class = center src='/static/experiments/go_nogo_deval/images/green_triangle.png'></img>,32,850,test,green_triangle,nogo2,-1,23,0,,,,,,,-1,-1,1400,0,ITI,poldrack-single-stim,132,246097,0.0-6.0-72.0,go_nogo_deval,438,,<div></div>,32,1400,test,,,,,,,,,,,,-1,-1,500,0,fixation,poldrack-single-stim,133,246599,0.0-6.0-73.0,go_nogo_deval,438,,<div class = centerbox><div class = fixation>+</div></div>,none,500,test,,,,,,,,,,,,-1,-1,850,0,stim,poldrack-single-stim,134,247451,0.0-6.0-74.0,go_nogo_deval,438,,<img class = center src='/static/experiments/go_nogo_deval/images/green_triangle.png'></img>,32,850,test,green_triangle,nogo2,-1,24,0,,,,,,,-1,-1,1400,0,ITI,poldrack-single-stim,135,248853,0.0-6.0-75.0,go_nogo_deval,438,,<div></div>,32,1400,test,,,,,,,,,,,,-1,-1,500,0,fixation,poldrack-single-stim,136,249355,0.0-6.0-76.0,go_nogo_deval,438,,<div class = centerbox><div class = fixation>+</div></div>,none,500,test,,,,,,,,,,,,423,32,850,0,stim,poldrack-single-stim,137,250206,0.0-6.0-77.0,go_nogo_deval,438,,<img class = center src='/static/experiments/go_nogo_deval/images/red_rhombus.png'></img>,32,850,test,red_rhombus,go2,32,25,0,,,,,,,-1,-1,1400,0,ITI,poldrack-single-stim,138,251609,0.0-6.0-78.0,go_nogo_deval,438,,<div></div>,32,1400,test,,,,,,,,,,,,-1,-1,500,0,fixation,poldrack-single-stim,139,252110,0.0-6.0-79.0,go_nogo_deval,438,,<div class = centerbox><div class = fixation>+</div></div>,none,500,test,,,,,,,,,,,,491,32,850,0,stim,poldrack-single-stim,140,252961,0.0-6.0-80.0,go_nogo_deval,438,,<img class = center src='/static/experiments/go_nogo_deval/images/red_rhombus.png'></img>,32,850,test,red_rhombus,go2,32,26,0,,,,,,,-1,-1,1400,0,ITI,poldrack-single-stim,141,254362,0.0-6.0-81.0,go_nogo_deval,438,,<div></div>,32,1400,test,,,,,,,,,,,,-1,-1,500,0,fixation,poldrack-single-stim,142,254865,0.0-6.0-82.0,go_nogo_deval,438,,<div class = centerbox><div class = fixation>+</div></div>,none,500,test,,,,,,,,,,,,-1,-1,850,0,stim,poldrack-single-stim,143,255716,0.0-6.0-83.0,go_nogo_deval,438,,<img class = center src='/static/experiments/go_nogo_deval/images/green_triangle.png'></img>,32,850,test,green_triangle,nogo2,-1,27,0,,,,,,,-1,-1,1400,0,ITI,poldrack-single-stim,144,257117,0.0-6.0-84.0,go_nogo_deval,438,,<div></div>,32,1400,test,,,,,,,,,,,,-1,-1,500,0,fixation,poldrack-single-stim,145,257619,0.0-6.0-85.0,go_nogo_deval,438,,<div class = centerbox><div class = fixation>+</div></div>,none,500,test,,,,,,,,,,,,382,32,850,0,stim,poldrack-single-stim,146,258470,0.0-6.0-86.0,go_nogo_deval,438,,<img class = center src='/static/experiments/go_nogo_deval/images/blue_pentagon.png'></img>,32,850,test,blue_pentagon,go1,32,28,0,,,,,,,-1,-1,1400,0,ITI,poldrack-single-stim,147,259872,0.0-6.0-87.0,go_nogo_deval,438,,<div></div>,32,1400,test,,,,,,,,,,,,-1,-1,500,0,fixation,poldrack-single-stim,148,260373,0.0-6.0-88.0,go_nogo_deval,438,,<div class = centerbox><div class = fixation>+</div></div>,none,500,test,,,,,,,,,,,,383,32,850,0,stim,poldrack-single-stim,149,261224,0.0-6.0-89.0,go_nogo_deval,438,,<img class = center src='/static/experiments/go_nogo_deval/images/red_rhombus.png'></img>,32,850,test,red_rhombus,go2,32,29,0,,,,,,,-1,-1,1400,0,ITI,poldrack-single-stim,150,262626,0.0-6.0-90.0,go_nogo_deval,438,,<div></div>,32,1400,test,,,,,,,,,,,,-1,-1,500,0,fixation,poldrack-single-stim,151,263128,0.0-6.0-91.0,go_nogo_deval,438,,<div class = centerbox><div class = fixation>+</div></div>,none,500,test,,,,,,,,,,,,340,32,850,0,stim,poldrack-single-stim,152,263979,0.0-6.0-92.0,go_nogo_deval,438,,<img class = center src='/static/experiments/go_nogo_deval/images/blue_pentagon.png'></img>,32,850,test,blue_pentagon,go1,32,30,0,,,,,,,-1,-1,1400,0,ITI,poldrack-single-stim,153,265380,0.0-6.0-93.0,go_nogo_deval,438,,<div></div>,32,1400,test,,,,,,,,,,,,-1,-1,500,0,fixation,poldrack-single-stim,154,265881,0.0-6.0-94.0,go_nogo_deval,438,,<div class = centerbox><div class = fixation>+</div></div>,none,500,test,,,,,,,,,,,,342,32,850,0,stim,poldrack-single-stim,155,266733,0.0-6.0-95.0,go_nogo_deval,438,,<img class = center src='/static/experiments/go_nogo_deval/images/blue_pentagon.png'></img>,32,850,test,blue_pentagon,go1,32,31,0,,,,,,,-1,-1,1400,0,ITI,poldrack-single-stim,156,268135,0.0-6.0-96.0,go_nogo_deval,438,,<div></div>,32,1400,test,,,,,,,,,,,,-1,-1,500,0,fixation,poldrack-single-stim,157,268636,0.0-6.0-97.0,go_nogo_deval,438,,<div class = centerbox><div class = fixation>+</div></div>,none,500,test,,,,,,,,,,,,412,32,850,0,stim,poldrack-single-stim,158,269487,0.0-6.0-98.0,go_nogo_deval,438,,<img class = center src='/static/experiments/go_nogo_deval/images/red_rhombus.png'></img>,32,850,test,red_rhombus,go2,32,32,0,,,,,,,-1,-1,1400,0,ITI,poldrack-single-stim,159,270889,0.0-6.0-99.0,go_nogo_deval,438,,<div></div>,32,1400,test,,,,,,,,,,,,-1,-1,500,0,fixation,poldrack-single-stim,160,271391,0.0-6.0-100.0,go_nogo_deval,438,,<div class = centerbox><div class = fixation>+</div></div>,none,500,test,,,,,,,,,,,,414,32,850,0,stim,poldrack-single-stim,161,272242,0.0-6.0-101.0,go_nogo_deval,438,,<img class = center src='/static/experiments/go_nogo_deval/images/red_rhombus.png'></img>,32,850,test,red_rhombus,go2,32,33,0,,,,,,,-1,-1,1400,0,ITI,poldrack-single-stim,162,273643,0.0-6.0-102.0,go_nogo_deval,438,,<div></div>,32,1400,test,,,,,,,,,,,,-1,-1,500,0,fixation,poldrack-single-stim,163,274145,0.0-6.0-103.0,go_nogo_deval,438,,<div class = centerbox><div class = fixation>+</div></div>,none,500,test,,,,,,,,,,,,370,32,850,0,stim,poldrack-single-stim,164,274997,0.0-6.0-104.0,go_nogo_deval,438,,<img class = center src='/static/experiments/go_nogo_deval/images/red_rhombus.png'></img>,32,850,test,red_rhombus,go2,32,34,0,,,,,,,-1,-1,1400,0,ITI,poldrack-single-stim,165,276398,0.0-6.0-105.0,go_nogo_deval,438,,<div></div>,32,1400,test,,,,,,,,,,,,-1,-1,500,0,fixation,poldrack-single-stim,166,276900,0.0-6.0-106.0,go_nogo_deval,438,,<div class = centerbox><div class = fixation>+</div></div>,none,500,test,,,,,,,,,,,,-1,-1,850,0,stim,poldrack-single-stim,167,277752,0.0-6.0-107.0,go_nogo_deval,438,,<img class = center src='/static/experiments/go_nogo_deval/images/purple_circle.png'></img>,32,850,test,purple_circle,nogo1,-1,35,0,,,,,,,-1,-1,1400,0,ITI,poldrack-single-stim,168,279152,0.0-6.0-108.0,go_nogo_deval,438,,<div></div>,32,1400,test,,,,,,,,,,,,-1,-1,500,0,fixation,poldrack-single-stim,169,279654,0.0-6.0-109.0,go_nogo_deval,438,,<div class = centerbox><div class = fixation>+</div></div>,none,500,test,,,,,,,,,,,,408,32,850,0,stim,poldrack-single-stim,170,280506,0.0-6.0-110.0,go_nogo_deval,438,,<img class = center src='/static/experiments/go_nogo_deval/images/blue_pentagon.png'></img>,32,850,test,blue_pentagon,go1,32,36,0,,,,,,,-1,-1,1400,0,ITI,poldrack-single-stim,171,281907,0.0-6.0-111.0,go_nogo_deval,438,,<div></div>,32,1400,test,,,,,,,,,,,,-1,-1,500,0,fixation,poldrack-single-stim,172,282409,0.0-6.0-112.0,go_nogo_deval,438,,<div class = centerbox><div class = fixation>+</div></div>,none,500,test,,,,,,,,,,,,376,32,850,0,stim,poldrack-single-stim,173,283260,0.0-6.0-113.0,go_nogo_deval,438,,<img class = center src='/static/experiments/go_nogo_deval/images/blue_pentagon.png'></img>,32,850,test,blue_pentagon,go1,32,37,0,,,,,,,-1,-1,1400,0,ITI,poldrack-single-stim,174,284662,0.0-6.0-114.0,go_nogo_deval,438,,<div></div>,32,1400,test,,,,,,,,,,,,-1,-1,500,0,fixation,poldrack-single-stim,175,285164,0.0-6.0-115.0,go_nogo_deval,438,,<div class = centerbox><div class = fixation>+</div></div>,none,500,test,,,,,,,,,,,,-1,-1,850,0,stim,poldrack-single-stim,176,286016,0.0-6.0-116.0,go_nogo_deval,438,,<img class = center src='/static/experiments/go_nogo_deval/images/green_triangle.png'></img>,32,850,test,green_triangle,nogo2,-1,38,0,,,,,,,-1,-1,1400,0,ITI,poldrack-single-stim,177,287418,0.0-6.0-117.0,go_nogo_deval,438,,<div></div>,32,1400,test,,,,,,,,,,,,-1,-1,500,0,fixation,poldrack-single-stim,178,287920,0.0-6.0-118.0,go_nogo_deval,438,,<div class = centerbox><div class = fixation>+</div></div>,none,500,test,,,,,,,,,,,,-1,-1,850,0,stim,poldrack-single-stim,179,288770,0.0-6.0-119.0,go_nogo_deval,438,,<img class = center src='/static/experiments/go_nogo_deval/images/purple_circle.png'></img>,32,850,test,purple_circle,nogo1,-1,39,0,,,,,,,-1,-1,1400,0,ITI,poldrack-single-stim,180,290172,0.0-6.0-120.0,go_nogo_deval,438,,<div></div>,32,1400,test,,,,,,,,,,,,-1,-1,500,0,fixation,poldrack-single-stim,181,290674,0.0-6.0-121.0,go_nogo_deval,438,,<div class = centerbox><div class = fixation>+</div></div>,none,500,test,,,,,,,,,,,,-1,-1,850,0,stim,poldrack-single-stim,182,291526,0.0-6.0-122.0,go_nogo_deval,438,,<img class = center src='/static/experiments/go_nogo_deval/images/purple_circle.png'></img>,32,850,test,purple_circle,nogo1,-1,40,0,,,,,,,-1,-1,1400,0,ITI,poldrack-single-stim,183,292927,0.0-6.0-123.0,go_nogo_deval,438,,<div></div>,32,1400,test,,,,,,,,,,,,-1,-1,500,0,fixation,poldrack-single-stim,184,293427,0.0-6.0-124.0,go_nogo_deval,438,,<div class = centerbox><div class = fixation>+</div></div>,none,500,test,,,,,,,,,,,,393,32,850,0,stim,poldrack-single-stim,185,294279,0.0-6.0-125.0,go_nogo_deval,438,,<img class = center src='/static/experiments/go_nogo_deval/images/blue_pentagon.png'></img>,32,850,test,blue_pentagon,go1,32,41,0,,,,,,,-1,-1,1400,0,ITI,poldrack-single-stim,186,295681,0.0-6.0-126.0,go_nogo_deval,438,,<div></div>,32,1400,test,,,,,,,,,,,,-1,-1,500,0,fixation,poldrack-single-stim,187,296183,0.0-6.0-127.0,go_nogo_deval,438,,<div class = centerbox><div class = fixation>+</div></div>,none,500,test,,,,,,,,,,,,-1,-1,850,0,stim,poldrack-single-stim,188,297035,0.0-6.0-128.0,go_nogo_deval,438,,<img class = center src='/static/experiments/go_nogo_deval/images/purple_circle.png'></img>,32,850,test,purple_circle,nogo1,-1,42,0,,,,,,,-1,-1,1400,0,ITI,poldrack-single-stim,189,298435,0.0-6.0-129.0,go_nogo_deval,438,,<div></div>,32,1400,test,,,,,,,,,,,,-1,-1,500,0,fixation,poldrack-single-stim,190,298937,0.0-6.0-130.0,go_nogo_deval,438,,<div class = centerbox><div class = fixation>+</div></div>,none,500,test,,,,,,,,,,,,442,32,850,0,stim,poldrack-single-stim,191,299788,0.0-6.0-131.0,go_nogo_deval,438,,<img class = center src='/static/experiments/go_nogo_deval/images/red_rhombus.png'></img>,32,850,test,red_rhombus,go2,32,43,0,,,,,,,-1,-1,1400,0,ITI,poldrack-single-stim,192,301190,0.0-6.0-132.0,go_nogo_deval,438,,<div></div>,32,1400,test,,,,,,,,,,,,-1,-1,500,0,fixation,poldrack-single-stim,193,301692,0.0-6.0-133.0,go_nogo_deval,438,,<div class = centerbox><div class = fixation>+</div></div>,none,500,test,,,,,,,,,,,,342,32,850,0,stim,poldrack-single-stim,194,302544,0.0-6.0-134.0,go_nogo_deval,438,,<img class = center src='/static/experiments/go_nogo_deval/images/red_rhombus.png'></img>,32,850,test,red_rhombus,go2,32,44,0,,,,,,,-1,-1,1400,0,ITI,poldrack-single-stim,195,303944,0.0-6.0-135.0,go_nogo_deval,438,,<div></div>,32,1400,test,,,,,,,,,,,,-1,-1,500,0,fixation,poldrack-single-stim,196,304446,0.0-6.0-136.0,go_nogo_deval,438,,<div class = centerbox><div class = fixation>+</div></div>,none,500,test,,,,,,,,,,,,-1,-1,850,0,stim,poldrack-single-stim,197,305298,0.0-6.0-137.0,go_nogo_deval,438,,<img class = center src='/static/experiments/go_nogo_deval/images/green_triangle.png'></img>,32,850,test,green_triangle,nogo2,-1,45,0,,,,,,,-1,-1,1400,0,ITI,poldrack-single-stim,198,306700,0.0-6.0-138.0,go_nogo_deval,438,,<div></div>,32,1400,test,,,,,,,,,,,,-1,-1,500,0,fixation,poldrack-single-stim,199,307201,0.0-6.0-139.0,go_nogo_deval,438,,<div class = centerbox><div class = fixation>+</div></div>,none,500,test,,,,,,,,,,,,379,32,850,0,stim,poldrack-single-stim,200,308051,0.0-6.0-140.0,go_nogo_deval,438,,<img class = center src='/static/experiments/go_nogo_deval/images/red_rhombus.png'></img>,32,850,test,red_rhombus,go2,32,46,0,,,,,,,-1,-1,1400,0,ITI,poldrack-single-stim,201,309453,0.0-6.0-141.0,go_nogo_deval,438,,<div></div>,32,1400,test,,,,,,,,,,,,-1,-1,500,0,fixation,poldrack-single-stim,202,309955,0.0-6.0-142.0,go_nogo_deval,438,,<div class = centerbox><div class = fixation>+</div></div>,none,500,test,,,,,,,,,,,,437,32,850,0,stim,poldrack-single-stim,203,310805,0.0-6.0-143.0,go_nogo_deval,438,,<img class = center src='/static/experiments/go_nogo_deval/images/red_rhombus.png'></img>,32,850,test,red_rhombus,go2,32,47,0,,,,,,,-1,-1,1400,0,ITI,poldrack-single-stim,204,312207,0.0-6.0-144.0,go_nogo_deval,438,,<div></div>,32,1400,test,,,,,,,,,,,,24215,13,24215,0,practice-no-stop-feedback,poldrack-single-stim,205,336426,0.0-6.1-0.1,go_nogo_deval,438,,<div class = centerbox><p class = block-text><br>Please take this time to read your feedback and to take a short break! Press enter to continue</p><p class = block-text><strong>Average reaction time:  384 ms. Accuracy: 100%</strong></p></div>,13,24215,,,,,,,,,,,,,-1,-1,500,0,fixation,poldrack-single-stim,206,336928,0.0-6.1-1.1,go_nogo_deval,438,,<div class = centerbox><div class = fixation>+</div></div>,none,500,test,,,,,,,,,,,,352,32,850,0,stim,poldrack-single-stim,207,337780,0.0-6.1-2.1,go_nogo_deval,438,,<img class = center src='/static/experiments/go_nogo_deval/images/blue_pentagon.png'></img>,32,850,test,blue_pentagon,go1,32,0,1,,,,,,,-1,-1,1400,0,ITI,poldrack-single-stim,208,339181,0.0-6.1-3.1,go_nogo_deval,438,,<div></div>,32,1400,test,,,,,,,,,,,,-1,-1,500,0,fixation,poldrack-single-stim,209,339683,0.0-6.1-4.1,go_nogo_deval,438,,<div class = centerbox><div class = fixation>+</div></div>,none,500,test,,,,,,,,,,,,319,32,850,0,stim,poldrack-single-stim,210,340535,0.0-6.1-5.1,go_nogo_deval,438,,<img class = center src='/static/experiments/go_nogo_deval/images/blue_pentagon.png'></img>,32,850,test,blue_pentagon,go1,32,1,1,,,,,,,-1,-1,1400,0,ITI,poldrack-single-stim,211,341936,0.0-6.1-6.1,go_nogo_deval,438,,<div></div>,32,1400,test,,,,,,,,,,,,-1,-1,500,0,fixation,poldrack-single-stim,212,342438,0.0-6.1-7.1,go_nogo_deval,438,,<div class = centerbox><div class = fixation>+</div></div>,none,500,test,,,,,,,,,,,,389,32,850,0,stim,poldrack-single-stim,213,343289,0.0-6.1-8.1,go_nogo_deval,438,,<img class = center src='/static/experiments/go_nogo_deval/images/red_rhombus.png'></img>,32,850,test,red_rhombus,go2,32,2,1,,,,,,,-1,-1,1400,0,ITI,poldrack-single-stim,214,344690,0.0-6.1-9.1,go_nogo_deval,438,,<div></div>,32,1400,test,,,,,,,,,,,,-1,-1,500,0,fixation,poldrack-single-stim,215,345192,0.0-6.1-10.1,go_nogo_deval,438,,<div class = centerbox><div class = fixation>+</div></div>,none,500,test,,,,,,,,,,,,312,32,850,0,stim,poldrack-single-stim,216,346042,0.0-6.1-11.1,go_nogo_deval,438,,<img class = center src='/static/experiments/go_nogo_deval/images/red_rhombus.png'></img>,32,850,test,red_rhombus,go2,32,3,1,,,,,,,-1,-1,1400,0,ITI,poldrack-single-stim,217,347444,0.0-6.1-12.1,go_nogo_deval,438,,<div></div>,32,1400,test,,,,,,,,,,,,-1,-1,500,0,fixation,poldrack-single-stim,218,347946,0.0-6.1-13.1,go_nogo_deval,438,,<div class = centerbox><div class = fixation>+</div></div>,none,500,test,,,,,,,,,,,,291,32,850,0,stim,poldrack-single-stim,219,348797,0.0-6.1-14.1,go_nogo_deval,438,,<img class = center src='/static/experiments/go_nogo_deval/images/blue_pentagon.png'></img>,32,850,test,blue_pentagon,go1,32,4,1,,,,,,,-1,-1,1400,0,ITI,poldrack-single-stim,220,350199,0.0-6.1-15.1,go_nogo_deval,438,,<div></div>,32,1400,test,,,,,,,,,,,,-1,-1,500,0,fixation,poldrack-single-stim,221,350701,0.0-6.1-16.1,go_nogo_deval,438,,<div class = centerbox><div class = fixation>+</div></div>,none,500,test,,,,,,,,,,,,316,32,850,0,stim,poldrack-single-stim,222,351553,0.0-6.1-17.1,go_nogo_deval,438,,<img class = center src='/static/experiments/go_nogo_deval/images/red_rhombus.png'></img>,32,850,test,red_rhombus,go2,32,5,1,,,,,,,-1,-1,1400,0,ITI,poldrack-single-stim,223,352954,0.0-6.1-18.1,go_nogo_deval,438,,<div></div>,32,1400,test,,,,,,,,,,,,-1,-1,500,0,fixation,poldrack-single-stim,224,353455,0.0-6.1-19.1,go_nogo_deval,438,,<div class = centerbox><div class = fixation>+</div></div>,none,500,test,,,,,,,,,,,,363,32,850,0,stim,poldrack-single-stim,225,354306,0.0-6.1-20.1,go_nogo_deval,438,,<img class = center src='/static/experiments/go_nogo_deval/images/blue_pentagon.png'></img>,32,850,test,blue_pentagon,go1,32,6,1,,,,,,,-1,-1,1400,0,ITI,poldrack-single-stim,226,355708,0.0-6.1-21.1,go_nogo_deval,438,,<div></div>,32,1400,test,,,,,,,,,,,,-1,-1,500,0,fixation,poldrack-single-stim,227,356209,0.0-6.1-22.1,go_nogo_deval,438,,<div class = centerbox><div class = fixation>+</div></div>,none,500,test,,,,,,,,,,,,409,32,850,0,stim,poldrack-single-stim,228,357061,0.0-6.1-23.1,go_nogo_deval,438,,<img class = center src='/static/experiments/go_nogo_deval/images/red_rhombus.png'></img>,32,850,test,red_rhombus,go2,32,7,1,,,,,,,-1,-1,1400,0,ITI,poldrack-single-stim,229,358462,0.0-6.1-24.1,go_nogo_deval,438,,<div></div>,32,1400,test,,,,,,,,,,,,-1,-1,500,0,fixation,poldrack-single-stim,230,358964,0.0-6.1-25.1,go_nogo_deval,438,,<div class = centerbox><div class = fixation>+</div></div>,none,500,test,,,,,,,,,,,,401,32,850,0,stim,poldrack-single-stim,231,359815,0.0-6.1-26.1,go_nogo_deval,438,,<img class = center src='/static/experiments/go_nogo_deval/images/red_rhombus.png'></img>,32,850,test,red_rhombus,go2,32,8,1,,,,,,,-1,-1,1400,0,ITI,poldrack-single-stim,232,361216,0.0-6.1-27.1,go_nogo_deval,438,,<div></div>,32,1400,test,,,,,,,,,,,,-1,-1,500,0,fixation,poldrack-single-stim,233,361718,0.0-6.1-28.1,go_nogo_deval,438,,<div class = centerbox><div class = fixation>+</div></div>,none,500,test,,,,,,,,,,,,391,32,850,0,stim,poldrack-single-stim,234,362570,0.0-6.1-29.1,go_nogo_deval,438,,<img class = center src='/static/experiments/go_nogo_deval/images/blue_pentagon.png'></img>,32,850,test,blue_pentagon,go1,32,9,1,,,,,,,-1,-1,1400,0,ITI,poldrack-single-stim,235,363971,0.0-6.1-30.1,go_nogo_deval,438,,<div></div>,32,1400,test,,,,,,,,,,,,-1,-1,500,0,fixation,poldrack-single-stim,236,364473,0.0-6.1-31.1,go_nogo_deval,438,,<div class = centerbox><div class = fixation>+</div></div>,none,500,test,,,,,,,,,,,,415,32,850,0,stim,poldrack-single-stim,237,365323,0.0-6.1-32.1,go_nogo_deval,438,,<img class = center src='/static/experiments/go_nogo_deval/images/blue_pentagon.png'></img>,32,850,test,blue_pentagon,go1,32,10,1,,,,,,,-1,-1,1400,0,ITI,poldrack-single-stim,238,366725,0.0-6.1-33.1,go_nogo_deval,438,,<div></div>,32,1400,test,,,,,,,,,,,,-1,-1,500,0,fixation,poldrack-single-stim,239,367226,0.0-6.1-34.1,go_nogo_deval,438,,<div class = centerbox><div class = fixation>+</div></div>,none,500,test,,,,,,,,,,,,317,32,850,0,stim,poldrack-single-stim,240,368078,0.0-6.1-35.1,go_nogo_deval,438,,<img class = center src='/static/experiments/go_nogo_deval/images/red_rhombus.png'></img>,32,850,test,red_rhombus,go2,32,11,1,,,,,,,-1,-1,1400,0,ITI,poldrack-single-stim,241,369480,0.0-6.1-36.1,go_nogo_deval,438,,<div></div>,32,1400,test,,,,,,,,,,,,-1,-1,500,0,fixation,poldrack-single-stim,242,369982,0.0-6.1-37.1,go_nogo_deval,438,,<div class = centerbox><div class = fixation>+</div></div>,none,500,test,,,,,,,,,,,,295,32,850,0,stim,poldrack-single-stim,243,370834,0.0-6.1-38.1,go_nogo_deval,438,,<img class = center src='/static/experiments/go_nogo_deval/images/blue_pentagon.png'></img>,32,850,test,blue_pentagon,go1,32,12,1,,,,,,,-1,-1,1400,0,ITI,poldrack-single-stim,244,372236,0.0-6.1-39.1,go_nogo_deval,438,,<div></div>,32,1400,test,,,,,,,,,,,,-1,-1,500,0,fixation,poldrack-single-stim,245,372736,0.0-6.1-40.1,go_nogo_deval,438,,<div class = centerbox><div class = fixation>+</div></div>,none,500,test,,,,,,,,,,,,-1,-1,850,0,stim,poldrack-single-stim,246,373588,0.0-6.1-41.1,go_nogo_deval,438,,<img class = center src='/static/experiments/go_nogo_deval/images/green_triangle.png'></img>,32,850,test,green_triangle,nogo2,-1,13,1,,,,,,,-1,-1,1400,0,ITI,poldrack-single-stim,247,374990,0.0-6.1-42.1,go_nogo_deval,438,,<div></div>,32,1400,test,,,,,,,,,,,,-1,-1,500,0,fixation,poldrack-single-stim,248,375491,0.0-6.1-43.1,go_nogo_deval,438,,<div class = centerbox><div class = fixation>+</div></div>,none,500,test,,,,,,,,,,,,-1,-1,850,0,stim,poldrack-single-stim,249,376343,0.0-6.1-44.1,go_nogo_deval,438,,<img class = center src='/static/experiments/go_nogo_deval/images/purple_circle.png'></img>,32,850,test,purple_circle,nogo1,-1,14,1,,,,,,,-1,-1,1400,0,ITI,poldrack-single-stim,250,377745,0.0-6.1-45.1,go_nogo_deval,438,,<div></div>,32,1400,test,,,,,,,,,,,,-1,-1,500,0,fixation,poldrack-single-stim,251,378246,0.0-6.1-46.1,go_nogo_deval,438,,<div class = centerbox><div class = fixation>+</div></div>,none,500,test,,,,,,,,,,,,445,32,850,0,stim,poldrack-single-stim,252,379098,0.0-6.1-47.1,go_nogo_deval,438,,<img class = center src='/static/experiments/go_nogo_deval/images/red_rhombus.png'></img>,32,850,test,red_rhombus,go2,32,15,1,,,,,,,-1,-1,1400,0,ITI,poldrack-single-stim,253,380500,0.0-6.1-48.1,go_nogo_deval,438,,<div></div>,32,1400,test,,,,,,,,,,,,-1,-1,500,0,fixation,poldrack-single-stim,254,381002,0.0-6.1-49.1,go_nogo_deval,438,,<div class = centerbox><div class = fixation>+</div></div>,none,500,test,,,,,,,,,,,,311,32,850,0,stim,poldrack-single-stim,255,381854,0.0-6.1-50.1,go_nogo_deval,438,,<img class = center src='/static/experiments/go_nogo_deval/images/blue_pentagon.png'></img>,32,850,test,blue_pentagon,go1,32,16,1,,,,,,,-1,-1,1400,0,ITI,poldrack-single-stim,256,383254,0.0-6.1-51.1,go_nogo_deval,438,,<div></div>,32,1400,test,,,,,,,,,,,,-1,-1,500,0,fixation,poldrack-single-stim,257,383755,0.0-6.1-52.1,go_nogo_deval,438,,<div class = centerbox><div class = fixation>+</div></div>,none,500,test,,,,,,,,,,,,337,32,850,0,stim,poldrack-single-stim,258,384607,0.0-6.1-53.1,go_nogo_deval,438,,<img class = center src='/static/experiments/go_nogo_deval/images/red_rhombus.png'></img>,32,850,test,red_rhombus,go2,32,17,1,,,,,,,-1,-1,1400,0,ITI,poldrack-single-stim,259,386008,0.0-6.1-54.1,go_nogo_deval,438,,<div></div>,32,1400,test,,,,,,,,,,,,-1,-1,500,0,fixation,poldrack-single-stim,260,386509,0.0-6.1-55.1,go_nogo_deval,438,,<div class = centerbox><div class = fixation>+</div></div>,none,500,test,,,,,,,,,,,,-1,-1,850,0,stim,poldrack-single-stim,261,387360,0.0-6.1-56.1,go_nogo_deval,438,,<img class = center src='/static/experiments/go_nogo_deval/images/purple_circle.png'></img>,32,850,test,purple_circle,nogo1,-1,18,1,,,,,,,-1,-1,1400,0,ITI,poldrack-single-stim,262,388762,0.0-6.1-57.1,go_nogo_deval,438,,<div></div>,32,1400,test,,,,,,,,,,,,-1,-1,500,0,fixation,poldrack-single-stim,263,389262,0.0-6.1-58.1,go_nogo_deval,438,,<div class = centerbox><div class = fixation>+</div></div>,none,500,test,,,,,,,,,,,,-1,-1,850,0,stim,poldrack-single-stim,264,390113,0.0-6.1-59.1,go_nogo_deval,438,,<img class = center src='/static/experiments/go_nogo_deval/images/purple_circle.png'></img>,32,850,test,purple_circle,nogo1,-1,19,1,,,,,,,-1,-1,1400,0,ITI,poldrack-single-stim,265,391514,0.0-6.1-60.1,go_nogo_deval,438,,<div></div>,32,1400,test,,,,,,,,,,,,-1,-1,500,0,fixation,poldrack-single-stim,266,392016,0.0-6.1-61.1,go_nogo_deval,438,,<div class = centerbox><div class = fixation>+</div></div>,none,500,test,,,,,,,,,,,,-1,-1,850,0,stim,poldrack-single-stim,267,392867,0.0-6.1-62.1,go_nogo_deval,438,,<img class = center src='/static/experiments/go_nogo_deval/images/green_triangle.png'></img>,32,850,test,green_triangle,nogo2,-1,20,1,,,,,,,-1,-1,1400,0,ITI,poldrack-single-stim,268,394269,0.0-6.1-63.1,go_nogo_deval,438,,<div></div>,32,1400,test,,,,,,,,,,,,-1,-1,500,0,fixation,poldrack-single-stim,269,394771,0.0-6.1-64.1,go_nogo_deval,438,,<div class = centerbox><div class = fixation>+</div></div>,none,500,test,,,,,,,,,,,,436,32,850,0,stim,poldrack-single-stim,270,395622,0.0-6.1-65.1,go_nogo_deval,438,,<img class = center src='/static/experiments/go_nogo_deval/images/blue_pentagon.png'></img>,32,850,test,blue_pentagon,go1,32,21,1,,,,,,,-1,-1,1400,0,ITI,poldrack-single-stim,271,397023,0.0-6.1-66.1,go_nogo_deval,438,,<div></div>,32,1400,test,,,,,,,,,,,,-1,-1,500,0,fixation,poldrack-single-stim,272,397525,0.0-6.1-67.1,go_nogo_deval,438,,<div class = centerbox><div class = fixation>+</div></div>,none,500,test,,,,,,,,,,,,449,32,850,0,stim,poldrack-single-stim,273,398376,0.0-6.1-68.1,go_nogo_deval,438,,<img class = center src='/static/experiments/go_nogo_deval/images/red_rhombus.png'></img>,32,850,test,red_rhombus,go2,32,22,1,,,,,,,-1,-1,1400,0,ITI,poldrack-single-stim,274,399776,0.0-6.1-69.1,go_nogo_deval,438,,<div></div>,32,1400,test,,,,,,,,,,,,-1,-1,500,0,fixation,poldrack-single-stim,275,400278,0.0-6.1-70.1,go_nogo_deval,438,,<div class = centerbox><div class = fixation>+</div></div>,none,500,test,,,,,,,,,,,,-1,-1,850,0,stim,poldrack-single-stim,276,401130,0.0-6.1-71.1,go_nogo_deval,438,,<img class = center src='/static/experiments/go_nogo_deval/images/green_triangle.png'></img>,32,850,test,green_triangle,nogo2,-1,23,1,,,,,,,-1,-1,1400,0,ITI,poldrack-single-stim,277,402532,0.0-6.1-72.1,go_nogo_deval,438,,<div></div>,32,1400,test,,,,,,,,,,,,-1,-1,500,0,fixation,poldrack-single-stim,278,403033,0.0-6.1-73.1,go_nogo_deval,438,,<div class = centerbox><div class = fixation>+</div></div>,none,500,test,,,,,,,,,,,,499,32,850,0,stim,poldrack-single-stim,279,403884,0.0-6.1-74.1,go_nogo_deval,438,,<img class = center src='/static/experiments/go_nogo_deval/images/red_rhombus.png'></img>,32,850,test,red_rhombus,go2,32,24,1,,,,,,,-1,-1,1400,0,ITI,poldrack-single-stim,280,405286,0.0-6.1-75.1,go_nogo_deval,438,,<div></div>,32,1400,test,,,,,,,,,,,,-1,-1,500,0,fixation,poldrack-single-stim,281,405787,0.0-6.1-76.1,go_nogo_deval,438,,<div class = centerbox><div class = fixation>+</div></div>,none,500,test,,,,,,,,,,,,-1,-1,850,0,stim,poldrack-single-stim,282,406639,0.0-6.1-77.1,go_nogo_deval,438,,<img class = center src='/static/experiments/go_nogo_deval/images/green_triangle.png'></img>,32,850,test,green_triangle,nogo2,-1,25,1,,,,,,,-1,-1,1400,0,ITI,poldrack-single-stim,283,408040,0.0-6.1-78.1,go_nogo_deval,438,,<div></div>,32,1400,test,,,,,,,,,,,,-1,-1,500,0,fixation,poldrack-single-stim,284,408541,0.0-6.1-79.1,go_nogo_deval,438,,<div class = centerbox><div class = fixation>+</div></div>,none,500,test,,,,,,,,,,,,-1,-1,850,0,stim,poldrack-single-stim,285,409391,0.0-6.1-80.1,go_nogo_deval,438,,<img class = center src='/static/experiments/go_nogo_deval/images/purple_circle.png'></img>,32,850,test,purple_circle,nogo1,-1,26,1,,,,,,,-1,-1,1400,0,ITI,poldrack-single-stim,286,410792,0.0-6.1-81.1,go_nogo_deval,438,,<div></div>,32,1400,test,,,,,,,,,,,,-1,-1,500,0,fixation,poldrack-single-stim,287,411294,0.0-6.1-82.1,go_nogo_deval,438,,<div class = centerbox><div class = fixation>+</div></div>,none,500,test,,,,,,,,,,,,338,32,850,0,stim,poldrack-single-stim,288,412146,0.0-6.1-83.1,go_nogo_deval,438,,<img class = center src='/static/experiments/go_nogo_deval/images/blue_pentagon.png'></img>,32,850,test,blue_pentagon,go1,32,27,1,,,,,,,-1,-1,1400,0,ITI,poldrack-single-stim,289,413548,0.0-6.1-84.1,go_nogo_deval,438,,<div></div>,32,1400,test,,,,,,,,,,,,-1,-1,500,0,fixation,poldrack-single-stim,290,414048,0.0-6.1-85.1,go_nogo_deval,438,,<div class = centerbox><div class = fixation>+</div></div>,none,500,test,,,,,,,,,,,,-1,-1,850,0,stim,poldrack-single-stim,291,414900,0.0-6.1-86.1,go_nogo_deval,438,,<img class = center src='/static/experiments/go_nogo_deval/images/purple_circle.png'></img>,32,850,test,purple_circle,nogo1,-1,28,1,,,,,,,-1,-1,1400,0,ITI,poldrack-single-stim,292,416300,0.0-6.1-87.1,go_nogo_deval,438,,<div></div>,32,1400,test,,,,,,,,,,,,-1,-1,500,0,fixation,poldrack-single-stim,293,416802,0.0-6.1-88.1,go_nogo_deval,438,,<div class = centerbox><div class = fixation>+</div></div>,none,500,test,,,,,,,,,,,,478,32,850,0,stim,poldrack-single-stim,294,417653,0.0-6.1-89.1,go_nogo_deval,438,,<img class = center src='/static/experiments/go_nogo_deval/images/red_rhombus.png'></img>,32,850,test,red_rhombus,go2,32,29,1,,,,,,,-1,-1,1400,0,ITI,poldrack-single-stim,295,419055,0.0-6.1-90.1,go_nogo_deval,438,,<div></div>,32,1400,test,,,,,,,,,,,,-1,-1,500,0,fixation,poldrack-single-stim,296,419557,0.0-6.1-91.1,go_nogo_deval,438,,<div class = centerbox><div class = fixation>+</div></div>,none,500,test,,,,,,,,,,,,389,32,850,0,stim,poldrack-single-stim,297,420407,0.0-6.1-92.1,go_nogo_deval,438,,<img class = center src='/static/experiments/go_nogo_deval/images/red_rhombus.png'></img>,32,850,test,red_rhombus,go2,32,30,1,,,,,,,-1,-1,1400,0,ITI,poldrack-single-stim,298,421809,0.0-6.1-93.1,go_nogo_deval,438,,<div></div>,32,1400,test,,,,,,,,,,,,-1,-1,500,0,fixation,poldrack-single-stim,299,422310,0.0-6.1-94.1,go_nogo_deval,438,,<div class = centerbox><div class = fixation>+</div></div>,none,500,test,,,,,,,,,,,,325,32,850,0,stim,poldrack-single-stim,300,423160,0.0-6.1-95.1,go_nogo_deval,438,,<img class = center src='/static/experiments/go_nogo_deval/images/red_rhombus.png'></img>,32,850,test,red_rhombus,go2,32,31,1,,,,,,,-1,-1,1400,0,ITI,poldrack-single-stim,301,424562,0.0-6.1-96.1,go_nogo_deval,438,,<div></div>,32,1400,test,,,,,,,,,,,,-1,-1,500,0,fixation,poldrack-single-stim,302,425063,0.0-6.1-97.1,go_nogo_deval,438,,<div class = centerbox><div class = fixation>+</div></div>,none,500,test,,,,,,,,,,,,317,32,850,0,stim,poldrack-single-stim,303,425915,0.0-6.1-98.1,go_nogo_deval,438,,<img class = center src='/static/experiments/go_nogo_deval/images/red_rhombus.png'></img>,32,850,test,red_rhombus,go2,32,32,1,,,,,,,-1,-1,1400,0,ITI,poldrack-single-stim,304,427315,0.0-6.1-99.1,go_nogo_deval,438,,<div></div>,32,1400,test,,,,,,,,,,,,-1,-1,500,0,fixation,poldrack-single-stim,305,427817,0.0-6.1-100.1,go_nogo_deval,438,,<div class = centerbox><div class = fixation>+</div></div>,none,500,test,,,,,,,,,,,,544,32,850,0,stim,poldrack-single-stim,306,428668,0.0-6.1-101.1,go_nogo_deval,438,,<img class = center src='/static/experiments/go_nogo_deval/images/blue_pentagon.png'></img>,32,850,test,blue_pentagon,go1,32,33,1,,,,,,,-1,-1,1400,0,ITI,poldrack-single-stim,307,430069,0.0-6.1-102.1,go_nogo_deval,438,,<div></div>,32,1400,test,,,,,,,,,,,,-1,-1,500,0,fixation,poldrack-single-stim,308,430570,0.0-6.1-103.1,go_nogo_deval,438,,<div class = centerbox><div class = fixation>+</div></div>,none,500,test,,,,,,,,,,,,-1,-1,850,0,stim,poldrack-single-stim,309,431421,0.0-6.1-104.1,go_nogo_deval,438,,<img class = center src='/static/experiments/go_nogo_deval/images/purple_circle.png'></img>,32,850,test,purple_circle,nogo1,-1,34,1,,,,,,,-1,-1,1400,0,ITI,poldrack-single-stim,310,432823,0.0-6.1-105.1,go_nogo_deval,438,,<div></div>,32,1400,test,,,,,,,,,,,,-1,-1,500,0,fixation,poldrack-single-stim,311,433324,0.0-6.1-106.1,go_nogo_deval,438,,<div class = centerbox><div class = fixation>+</div></div>,none,500,test,,,,,,,,,,,,370,32,850,0,stim,poldrack-single-stim,312,434175,0.0-6.1-107.1,go_nogo_deval,438,,<img class = center src='/static/experiments/go_nogo_deval/images/red_rhombus.png'></img>,32,850,test,red_rhombus,go2,32,35,1,,,,,,,-1,-1,1400,0,ITI,poldrack-single-stim,313,435576,0.0-6.1-108.1,go_nogo_deval,438,,<div></div>,32,1400,test,,,,,,,,,,,,-1,-1,500,0,fixation,poldrack-single-stim,314,436077,0.0-6.1-109.1,go_nogo_deval,438,,<div class = centerbox><div class = fixation>+</div></div>,none,500,test,,,,,,,,,,,,-1,-1,850,0,stim,poldrack-single-stim,315,436929,0.0-6.1-110.1,go_nogo_deval,438,,<img class = center src='/static/experiments/go_nogo_deval/images/green_triangle.png'></img>,32,850,test,green_triangle,nogo2,-1,36,1,,,,,,,-1,-1,1400,0,ITI,poldrack-single-stim,316,438331,0.0-6.1-111.1,go_nogo_deval,438,,<div></div>,32,1400,test,,,,,,,,,,,,-1,-1,500,0,fixation,poldrack-single-stim,317,438832,0.0-6.1-112.1,go_nogo_deval,438,,<div class = centerbox><div class = fixation>+</div></div>,none,500,test,,,,,,,,,,,,441,32,850,0,stim,poldrack-single-stim,318,439682,0.0-6.1-113.1,go_nogo_deval,438,,<img class = center src='/static/experiments/go_nogo_deval/images/blue_pentagon.png'></img>,32,850,test,blue_pentagon,go1,32,37,1,,,,,,,-1,-1,1400,0,ITI,poldrack-single-stim,319,441083,0.0-6.1-114.1,go_nogo_deval,438,,<div></div>,32,1400,test,,,,,,,,,,,,-1,-1,500,0,fixation,poldrack-single-stim,320,441584,0.0-6.1-115.1,go_nogo_deval,438,,<div class = centerbox><div class = fixation>+</div></div>,none,500,test,,,,,,,,,,,,-1,-1,850,0,stim,poldrack-single-stim,321,442436,0.0-6.1-116.1,go_nogo_deval,438,,<img class = center src='/static/experiments/go_nogo_deval/images/green_triangle.png'></img>,32,850,test,green_triangle,nogo2,-1,38,1,,,,,,,-1,-1,1400,0,ITI,poldrack-single-stim,322,443837,0.0-6.1-117.1,go_nogo_deval,438,,<div></div>,32,1400,test,,,,,,,,,,,,-1,-1,500,0,fixation,poldrack-single-stim,323,444339,0.0-6.1-118.1,go_nogo_deval,438,,<div class = centerbox><div class = fixation>+</div></div>,none,500,test,,,,,,,,,,,,357,32,850,0,stim,poldrack-single-stim,324,445191,0.0-6.1-119.1,go_nogo_deval,438,,<img class = center src='/static/experiments/go_nogo_deval/images/blue_pentagon.png'></img>,32,850,test,blue_pentagon,go1,32,39,1,,,,,,,-1,-1,1400,0,ITI,poldrack-single-stim,325,446591,0.0-6.1-120.1,go_nogo_deval,438,,<div></div>,32,1400,test,,,,,,,,,,,,-1,-1,500,0,fixation,poldrack-single-stim,326,447092,0.0-6.1-121.1,go_nogo_deval,438,,<div class = centerbox><div class = fixation>+</div></div>,none,500,test,,,,,,,,,,,,349,32,850,0,stim,poldrack-single-stim,327,447944,0.0-6.1-122.1,go_nogo_deval,438,,<img class = center src='/static/experiments/go_nogo_deval/images/blue_pentagon.png'></img>,32,850,test,blue_pentagon,go1,32,40,1,,,,,,,-1,-1,1400,0,ITI,poldrack-single-stim,328,449346,0.0-6.1-123.1,go_nogo_deval,438,,<div></div>,32,1400,test,,,,,,,,,,,,-1,-1,500,0,fixation,poldrack-single-stim,329,449846,0.0-6.1-124.1,go_nogo_deval,438,,<div class = centerbox><div class = fixation>+</div></div>,none,500,test,,,,,,,,,,,,339,32,850,0,stim,poldrack-single-stim,330,450697,0.0-6.1-125.1,go_nogo_deval,438,,<img class = center src='/static/experiments/go_nogo_deval/images/blue_pentagon.png'></img>,32,850,test,blue_pentagon,go1,32,41,1,,,,,,,-1,-1,1400,0,ITI,poldrack-single-stim,331,452098,0.0-6.1-126.1,go_nogo_deval,438,,<div></div>,32,1400,test,,,,,,,,,,,,-1,-1,500,0,fixation,poldrack-single-stim,332,452600,0.0-6.1-127.1,go_nogo_deval,438,,<div class = centerbox><div class = fixation>+</div></div>,none,500,test,,,,,,,,,,,,-1,-1,850,0,stim,poldrack-single-stim,333,453451,0.0-6.1-128.1,go_nogo_deval,438,,<img class = center src='/static/experiments/go_nogo_deval/images/purple_circle.png'></img>,32,850,test,purple_circle,nogo1,-1,42,1,,,,,,,-1,-1,1400,0,ITI,poldrack-single-stim,334,454854,0.0-6.1-129.1,go_nogo_deval,438,,<div></div>,32,1400,test,,,,,,,,,,,,-1,-1,500,0,fixation,poldrack-single-stim,335,455355,0.0-6.1-130.1,go_nogo_deval,438,,<div class = centerbox><div class = fixation>+</div></div>,none,500,test,,,,,,,,,,,,-1,-1,850,0,stim,poldrack-single-stim,336,456207,0.0-6.1-131.1,go_nogo_deval,438,,<img class = center src='/static/experiments/go_nogo_deval/images/green_triangle.png'></img>,32,850,test,green_triangle,nogo2,-1,43,1,,,,,,,-1,-1,1400,0,ITI,poldrack-single-stim,337,457609,0.0-6.1-132.1,go_nogo_deval,438,,<div></div>,32,1400,test,,,,,,,,,,,,-1,-1,500,0,fixation,poldrack-single-stim,338,458111,0.0-6.1-133.1,go_nogo_deval,438,,<div class = centerbox><div class = fixation>+</div></div>,none,500,test,,,,,,,,,,,,389,32,850,0,stim,poldrack-single-stim,339,458963,0.0-6.1-134.1,go_nogo_deval,438,,<img class = center src='/static/experiments/go_nogo_deval/images/blue_pentagon.png'></img>,32,850,test,blue_pentagon,go1,32,44,1,,,,,,,-1,-1,1400,0,ITI,poldrack-single-stim,340,460364,0.0-6.1-135.1,go_nogo_deval,438,,<div></div>,32,1400,test,,,,,,,,,,,,-1,-1,500,0,fixation,poldrack-single-stim,341,460866,0.0-6.1-136.1,go_nogo_deval,438,,<div class = centerbox><div class = fixation>+</div></div>,none,500,test,,,,,,,,,,,,-1,-1,850,0,stim,poldrack-single-stim,342,461717,0.0-6.1-137.1,go_nogo_deval,438,,<img class = center src='/static/experiments/go_nogo_deval/images/purple_circle.png'></img>,32,850,test,purple_circle,nogo1,-1,45,1,,,,,,,-1,-1,1400,0,ITI,poldrack-single-stim,343,463119,0.0-6.1-138.1,go_nogo_deval,438,,<div></div>,32,1400,test,,,,,,,,,,,,-1,-1,500,0,fixation,poldrack-single-stim,344,463620,0.0-6.1-139.1,go_nogo_deval,438,,<div class = centerbox><div class = fixation>+</div></div>,none,500,test,,,,,,,,,,,,437,32,850,0,stim,poldrack-single-stim,345,464472,0.0-6.1-140.1,go_nogo_deval,438,,<img class = center src='/static/experiments/go_nogo_deval/images/red_rhombus.png'></img>,32,850,test,red_rhombus,go2,32,46,1,,,,,,,-1,-1,1400,0,ITI,poldrack-single-stim,346,465873,0.0-6.1-141.1,go_nogo_deval,438,,<div></div>,32,1400,test,,,,,,,,,,,,-1,-1,500,0,fixation,poldrack-single-stim,347,466375,0.0-6.1-142.1,go_nogo_deval,438,,<div class = centerbox><div class = fixation>+</div></div>,none,500,test,,,,,,,,,,,,-1,-1,850,0,stim,poldrack-single-stim,348,467227,0.0-6.1-143.1,go_nogo_deval,438,,<img class = center src='/static/experiments/go_nogo_deval/images/green_triangle.png'></img>,32,850,test,green_triangle,nogo2,-1,47,1,,,,,,,-1,-1,1400,0,ITI,poldrack-single-stim,349,468629,0.0-6.1-144.1,go_nogo_deval,438,,<div></div>,32,1400,test,,,,,,,,,,,,37513,13,37513,0,practice-no-stop-feedback,poldrack-single-stim,350,506145,0.0-6.2-0.2,go_nogo_deval,438,,<div class = centerbox><p class = block-text><br>Please take this time to read your feedback and to take a short break! Press enter to continue</p><p class = block-text><strong>Average reaction time:  379 ms. Accuracy: 100%</strong></p></div>,13,37513,,,,,,,,,,,,,-1,-1,500,0,fixation,poldrack-single-stim,351,506647,0.0-6.2-1.2,go_nogo_deval,438,,<div class = centerbox><div class = fixation>+</div></div>,none,500,test,,,,,,,,,,,,352,32,850,0,stim,poldrack-single-stim,352,507499,0.0-6.2-2.2,go_nogo_deval,438,,<img class = center src='/static/experiments/go_nogo_deval/images/blue_pentagon.png'></img>,32,850,test,blue_pentagon,go1,32,0,2,,,,,,,-1,-1,1400,0,ITI,poldrack-single-stim,353,508901,0.0-6.2-3.2,go_nogo_deval,438,,<div></div>,32,1400,test,,,,,,,,,,,,-1,-1,500,0,fixation,poldrack-single-stim,354,509401,0.0-6.2-4.2,go_nogo_deval,438,,<div class = centerbox><div class = fixation>+</div></div>,none,500,test,,,,,,,,,,,,365,32,850,0,stim,poldrack-single-stim,355,510253,0.0-6.2-5.2,go_nogo_deval,438,,<img class = center src='/static/experiments/go_nogo_deval/images/red_rhombus.png'></img>,32,850,test,red_rhombus,go2,32,1,2,,,,,,,-1,-1,1400,0,ITI,poldrack-single-stim,356,511655,0.0-6.2-6.2,go_nogo_deval,438,,<div></div>,32,1400,test,,,,,,,,,,,,-1,-1,500,0,fixation,poldrack-single-stim,357,512156,0.0-6.2-7.2,go_nogo_deval,438,,<div class = centerbox><div class = fixation>+</div></div>,none,500,test,,,,,,,,,,,,287,32,850,0,stim,poldrack-single-stim,358,513007,0.0-6.2-8.2,go_nogo_deval,438,,<img class = center src='/static/experiments/go_nogo_deval/images/blue_pentagon.png'></img>,32,850,test,blue_pentagon,go1,32,2,2,,,,,,,-1,-1,1400,0,ITI,poldrack-single-stim,359,514409,0.0-6.2-9.2,go_nogo_deval,438,,<div></div>,32,1400,test,,,,,,,,,,,,-1,-1,500,0,fixation,poldrack-single-stim,360,514911,0.0-6.2-10.2,go_nogo_deval,438,,<div class = centerbox><div class = fixation>+</div></div>,none,500,test,,,,,,,,,,,,-1,-1,850,0,stim,poldrack-single-stim,361,515763,0.0-6.2-11.2,go_nogo_deval,438,,<img class = center src='/static/experiments/go_nogo_deval/images/purple_circle.png'></img>,32,850,test,purple_circle,nogo1,-1,3,2,,,,,,,-1,-1,1400,0,ITI,poldrack-single-stim,362,517163,0.0-6.2-12.2,go_nogo_deval,438,,<div></div>,32,1400,test,,,,,,,,,,,,-1,-1,500,0,fixation,poldrack-single-stim,363,517665,0.0-6.2-13.2,go_nogo_deval,438,,<div class = centerbox><div class = fixation>+</div></div>,none,500,test,,,,,,,,,,,,460,32,850,0,stim,poldrack-single-stim,364,518516,0.0-6.2-14.2,go_nogo_deval,438,,<img class = center src='/static/experiments/go_nogo_deval/images/red_rhombus.png'></img>,32,850,test,red_rhombus,go2,32,4,2,,,,,,,-1,-1,1400,0,ITI,poldrack-single-stim,365,519918,0.0-6.2-15.2,go_nogo_deval,438,,<div></div>,32,1400,test,,,,,,,,,,,,-1,-1,500,0,fixation,poldrack-single-stim,366,520420,0.0-6.2-16.2,go_nogo_deval,438,,<div class = centerbox><div class = fixation>+</div></div>,none,500,test,,,,,,,,,,,,-1,-1,850,0,stim,poldrack-single-stim,367,521272,0.0-6.2-17.2,go_nogo_deval,438,,<img class = center src='/static/experiments/go_nogo_deval/images/purple_circle.png'></img>,32,850,test,purple_circle,nogo1,-1,5,2,,,,,,,-1,-1,1400,0,ITI,poldrack-single-stim,368,522674,0.0-6.2-18.2,go_nogo_deval,438,,<div></div>,32,1400,test,,,,,,,,,,,,-1,-1,500,0,fixation,poldrack-single-stim,369,523175,0.0-6.2-19.2,go_nogo_deval,438,,<div class = centerbox><div class = fixation>+</div></div>,none,500,test,,,,,,,,,,,,-1,-1,850,0,stim,poldrack-single-stim,370,524027,0.0-6.2-20.2,go_nogo_deval,438,,<img class = center src='/static/experiments/go_nogo_deval/images/purple_circle.png'></img>,32,850,test,purple_circle,nogo1,-1,6,2,,,,,,,-1,-1,1400,0,ITI,poldrack-single-stim,371,525429,0.0-6.2-21.2,go_nogo_deval,438,,<div></div>,32,1400,test,,,,,,,,,,,,-1,-1,500,0,fixation,poldrack-single-stim,372,525931,0.0-6.2-22.2,go_nogo_deval,438,,<div class = centerbox><div class = fixation>+</div></div>,none,500,test,,,,,,,,,,,,340,32,850,0,stim,poldrack-single-stim,373,526782,0.0-6.2-23.2,go_nogo_deval,438,,<img class = center src='/static/experiments/go_nogo_deval/images/blue_pentagon.png'></img>,32,850,test,blue_pentagon,go1,32,7,2,,,,,,,-1,-1,1400,0,ITI,poldrack-single-stim,374,528184,0.0-6.2-24.2,go_nogo_deval,438,,<div></div>,32,1400,test,,,,,,,,,,,,-1,-1,500,0,fixation,poldrack-single-stim,375,528685,0.0-6.2-25.2,go_nogo_deval,438,,<div class = centerbox><div class = fixation>+</div></div>,none,500,test,,,,,,,,,,,,-1,-1,850,0,stim,poldrack-single-stim,376,529537,0.0-6.2-26.2,go_nogo_deval,438,,<img class = center src='/static/experiments/go_nogo_deval/images/purple_circle.png'></img>,32,850,test,purple_circle,nogo1,-1,8,2,,,,,,,-1,-1,1400,0,ITI,poldrack-single-stim,377,530938,0.0-6.2-27.2,go_nogo_deval,438,,<div></div>,32,1400,test,,,,,,,,,,,,-1,-1,500,0,fixation,poldrack-single-stim,378,531440,0.0-6.2-28.2,go_nogo_deval,438,,<div class = centerbox><div class = fixation>+</div></div>,none,500,test,,,,,,,,,,,,366,32,850,0,stim,poldrack-single-stim,379,532292,0.0-6.2-29.2,go_nogo_deval,438,,<img class = center src='/static/experiments/go_nogo_deval/images/red_rhombus.png'></img>,32,850,test,red_rhombus,go2,32,9,2,,,,,,,-1,-1,1400,0,ITI,poldrack-single-stim,380,533694,0.0-6.2-30.2,go_nogo_deval,438,,<div></div>,32,1400,test,,,,,,,,,,,,-1,-1,500,0,fixation,poldrack-single-stim,381,534195,0.0-6.2-31.2,go_nogo_deval,438,,<div class = centerbox><div class = fixation>+</div></div>,none,500,test,,,,,,,,,,,,333,32,850,0,stim,poldrack-single-stim,382,535046,0.0-6.2-32.2,go_nogo_deval,438,,<img class = center src='/static/experiments/go_nogo_deval/images/blue_pentagon.png'></img>,32,850,test,blue_pentagon,go1,32,10,2,,,,,,,-1,-1,1400,0,ITI,poldrack-single-stim,383,536448,0.0-6.2-33.2,go_nogo_deval,438,,<div></div>,32,1400,test,,,,,,,,,,,,-1,-1,500,0,fixation,poldrack-single-stim,384,536950,0.0-6.2-34.2,go_nogo_deval,438,,<div class = centerbox><div class = fixation>+</div></div>,none,500,test,,,,,,,,,,,,-1,-1,850,0,stim,poldrack-single-stim,385,537802,0.0-6.2-35.2,go_nogo_deval,438,,<img class = center src='/static/experiments/go_nogo_deval/images/green_triangle.png'></img>,32,850,test,green_triangle,nogo2,-1,11,2,,,,,,,-1,-1,1400,0,ITI,poldrack-single-stim,386,539204,0.0-6.2-36.2,go_nogo_deval,438,,<div></div>,32,1400,test,,,,,,,,,,,,-1,-1,500,0,fixation,poldrack-single-stim,387,539706,0.0-6.2-37.2,go_nogo_deval,438,,<div class = centerbox><div class = fixation>+</div></div>,none,500,test,,,,,,,,,,,,447,32,850,0,stim,poldrack-single-stim,388,540557,0.0-6.2-38.2,go_nogo_deval,438,,<img class = center src='/static/experiments/go_nogo_deval/images/red_rhombus.png'></img>,32,850,test,red_rhombus,go2,32,12,2,,,,,,,-1,-1,1400,0,ITI,poldrack-single-stim,389,541958,0.0-6.2-39.2,go_nogo_deval,438,,<div></div>,32,1400,test,,,,,,,,,,,,-1,-1,500,0,fixation,poldrack-single-stim,390,542460,0.0-6.2-40.2,go_nogo_deval,438,,<div class = centerbox><div class = fixation>+</div></div>,none,500,test,,,,,,,,,,,,393,32,850,0,stim,poldrack-single-stim,391,543312,0.0-6.2-41.2,go_nogo_deval,438,,<img class = center src='/static/experiments/go_nogo_deval/images/blue_pentagon.png'></img>,32,850,test,blue_pentagon,go1,32,13,2,,,,,,,-1,-1,1400,0,ITI,poldrack-single-stim,392,544713,0.0-6.2-42.2,go_nogo_deval,438,,<div></div>,32,1400,test,,,,,,,,,,,,-1,-1,500,0,fixation,poldrack-single-stim,393,545215,0.0-6.2-43.2,go_nogo_deval,438,,<div class = centerbox><div class = fixation>+</div></div>,none,500,test,,,,,,,,,,,,349,32,850,0,stim,poldrack-single-stim,394,546067,0.0-6.2-44.2,go_nogo_deval,438,,<img class = center src='/static/experiments/go_nogo_deval/images/blue_pentagon.png'></img>,32,850,test,blue_pentagon,go1,32,14,2,,,,,,,-1,-1,1400,0,ITI,poldrack-single-stim,395,547469,0.0-6.2-45.2,go_nogo_deval,438,,<div></div>,32,1400,test,,,,,,,,,,,,-1,-1,500,0,fixation,poldrack-single-stim,396,547970,0.0-6.2-46.2,go_nogo_deval,438,,<div class = centerbox><div class = fixation>+</div></div>,none,500,test,,,,,,,,,,,,428,32,850,0,stim,poldrack-single-stim,397,548822,0.0-6.2-47.2,go_nogo_deval,438,,<img class = center src='/static/experiments/go_nogo_deval/images/red_rhombus.png'></img>,32,850,test,red_rhombus,go2,32,15,2,,,,,,,-1,-1,1400,0,ITI,poldrack-single-stim,398,550224,0.0-6.2-48.2,go_nogo_deval,438,,<div></div>,32,1400,test,,,,,,,,,,,,-1,-1,500,0,fixation,poldrack-single-stim,399,550726,0.0-6.2-49.2,go_nogo_deval,438,,<div class = centerbox><div class = fixation>+</div></div>,none,500,test,,,,,,,,,,,,340,32,850,0,stim,poldrack-single-stim,400,551578,0.0-6.2-50.2,go_nogo_deval,438,,<img class = center src='/static/experiments/go_nogo_deval/images/red_rhombus.png'></img>,32,850,test,red_rhombus,go2,32,16,2,,,,,,,-1,-1,1400,0,ITI,poldrack-single-stim,401,552979,0.0-6.2-51.2,go_nogo_deval,438,,<div></div>,32,1400,test,,,,,,,,,,,,-1,-1,500,0,fixation,poldrack-single-stim,402,553480,0.0-6.2-52.2,go_nogo_deval,438,,<div class = centerbox><div class = fixation>+</div></div>,none,500,test,,,,,,,,,,,,-1,-1,850,0,stim,poldrack-single-stim,403,554332,0.0-6.2-53.2,go_nogo_deval,438,,<img class = center src='/static/experiments/go_nogo_deval/images/green_triangle.png'></img>,32,850,test,green_triangle,nogo2,-1,17,2,,,,,,,-1,-1,1400,0,ITI,poldrack-single-stim,404,555733,0.0-6.2-54.2,go_nogo_deval,438,,<div></div>,32,1400,test,,,,,,,,,,,,-1,-1,500,0,fixation,poldrack-single-stim,405,556235,0.0-6.2-55.2,go_nogo_deval,438,,<div class = centerbox><div class = fixation>+</div></div>,none,500,test,,,,,,,,,,,,-1,-1,850,0,stim,poldrack-single-stim,406,557087,0.0-6.2-56.2,go_nogo_deval,438,,<img class = center src='/static/experiments/go_nogo_deval/images/purple_circle.png'></img>,32,850,test,purple_circle,nogo1,-1,18,2,,,,,,,-1,-1,1400,0,ITI,poldrack-single-stim,407,558488,0.0-6.2-57.2,go_nogo_deval,438,,<div></div>,32,1400,test,,,,,,,,,,,,-1,-1,500,0,fixation,poldrack-single-stim,408,558989,0.0-6.2-58.2,go_nogo_deval,438,,<div class = centerbox><div class = fixation>+</div></div>,none,500,test,,,,,,,,,,,,323,32,850,0,stim,poldrack-single-stim,409,559840,0.0-6.2-59.2,go_nogo_deval,438,,<img class = center src='/static/experiments/go_nogo_deval/images/red_rhombus.png'></img>,32,850,test,red_rhombus,go2,32,19,2,,,,,,,-1,-1,1400,0,ITI,poldrack-single-stim,410,561242,0.0-6.2-60.2,go_nogo_deval,438,,<div></div>,32,1400,test,,,,,,,,,,,,-1,-1,500,0,fixation,poldrack-single-stim,411,561744,0.0-6.2-61.2,go_nogo_deval,438,,<div class = centerbox><div class = fixation>+</div></div>,none,500,test,,,,,,,,,,,,-1,-1,850,0,stim,poldrack-single-stim,412,562595,0.0-6.2-62.2,go_nogo_deval,438,,<img class = center src='/static/experiments/go_nogo_deval/images/green_triangle.png'></img>,32,850,test,green_triangle,nogo2,-1,20,2,,,,,,,-1,-1,1400,0,ITI,poldrack-single-stim,413,563996,0.0-6.2-63.2,go_nogo_deval,438,,<div></div>,32,1400,test,,,,,,,,,,,,-1,-1,500,0,fixation,poldrack-single-stim,414,564497,0.0-6.2-64.2,go_nogo_deval,438,,<div class = centerbox><div class = fixation>+</div></div>,none,500,test,,,,,,,,,,,,372,32,850,0,stim,poldrack-single-stim,415,565349,0.0-6.2-65.2,go_nogo_deval,438,,<img class = center src='/static/experiments/go_nogo_deval/images/blue_pentagon.png'></img>,32,850,test,blue_pentagon,go1,32,21,2,,,,,,,-1,-1,1400,0,ITI,poldrack-single-stim,416,566750,0.0-6.2-66.2,go_nogo_deval,438,,<div></div>,32,1400,test,,,,,,,,,,,,-1,-1,500,0,fixation,poldrack-single-stim,417,567251,0.0-6.2-67.2,go_nogo_deval,438,,<div class = centerbox><div class = fixation>+</div></div>,none,500,test,,,,,,,,,,,,363,32,850,0,stim,poldrack-single-stim,418,568103,0.0-6.2-68.2,go_nogo_deval,438,,<img class = center src='/static/experiments/go_nogo_deval/images/blue_pentagon.png'></img>,32,850,test,blue_pentagon,go1,32,22,2,,,,,,,-1,-1,1400,0,ITI,poldrack-single-stim,419,569505,0.0-6.2-69.2,go_nogo_deval,438,,<div></div>,32,1400,test,,,,,,,,,,,,-1,-1,500,0,fixation,poldrack-single-stim,420,570007,0.0-6.2-70.2,go_nogo_deval,438,,<div class = centerbox><div class = fixation>+</div></div>,none,500,test,,,,,,,,,,,,-1,-1,850,0,stim,poldrack-single-stim,421,570857,0.0-6.2-71.2,go_nogo_deval,438,,<img class = center src='/static/experiments/go_nogo_deval/images/green_triangle.png'></img>,32,850,test,green_triangle,nogo2,-1,23,2,,,,,,,-1,-1,1400,0,ITI,poldrack-single-stim,422,572259,0.0-6.2-72.2,go_nogo_deval,438,,<div></div>,32,1400,test,,,,,,,,,,,,-1,-1,500,0,fixation,poldrack-single-stim,423,572761,0.0-6.2-73.2,go_nogo_deval,438,,<div class = centerbox><div class = fixation>+</div></div>,none,500,test,,,,,,,,,,,,-1,-1,850,0,stim,poldrack-single-stim,424,573613,0.0-6.2-74.2,go_nogo_deval,438,,<img class = center src='/static/experiments/go_nogo_deval/images/purple_circle.png'></img>,32,850,test,purple_circle,nogo1,-1,24,2,,,,,,,-1,-1,1400,0,ITI,poldrack-single-stim,425,575014,0.0-6.2-75.2,go_nogo_deval,438,,<div></div>,32,1400,test,,,,,,,,,,,,-1,-1,500,0,fixation,poldrack-single-stim,426,575515,0.0-6.2-76.2,go_nogo_deval,438,,<div class = centerbox><div class = fixation>+</div></div>,none,500,test,,,,,,,,,,,,424,32,850,0,stim,poldrack-single-stim,427,576366,0.0-6.2-77.2,go_nogo_deval,438,,<img class = center src='/static/experiments/go_nogo_deval/images/red_rhombus.png'></img>,32,850,test,red_rhombus,go2,32,25,2,,,,,,,-1,-1,1400,0,ITI,poldrack-single-stim,428,577768,0.0-6.2-78.2,go_nogo_deval,438,,<div></div>,32,1400,test,,,,,,,,,,,,-1,-1,500,0,fixation,poldrack-single-stim,429,578269,0.0-6.2-79.2,go_nogo_deval,438,,<div class = centerbox><div class = fixation>+</div></div>,none,500,test,,,,,,,,,,,,392,32,850,0,stim,poldrack-single-stim,430,579121,0.0-6.2-80.2,go_nogo_deval,438,,<img class = center src='/static/experiments/go_nogo_deval/images/red_rhombus.png'></img>,32,850,test,red_rhombus,go2,32,26,2,,,,,,,-1,-1,1400,0,ITI,poldrack-single-stim,431,580522,0.0-6.2-81.2,go_nogo_deval,438,,<div></div>,32,1400,test,,,,,,,,,,,,-1,-1,500,0,fixation,poldrack-single-stim,432,581024,0.0-6.2-82.2,go_nogo_deval,438,,<div class = centerbox><div class = fixation>+</div></div>,none,500,test,,,,,,,,,,,,327,32,850,0,stim,poldrack-single-stim,433,581875,0.0-6.2-83.2,go_nogo_deval,438,,<img class = center src='/static/experiments/go_nogo_deval/images/blue_pentagon.png'></img>,32,850,test,blue_pentagon,go1,32,27,2,,,,,,,-1,-1,1400,0,ITI,poldrack-single-stim,434,583277,0.0-6.2-84.2,go_nogo_deval,438,,<div></div>,32,1400,test,,,,,,,,,,,,-1,-1,500,0,fixation,poldrack-single-stim,435,583778,0.0-6.2-85.2,go_nogo_deval,438,,<div class = centerbox><div class = fixation>+</div></div>,none,500,test,,,,,,,,,,,,-1,-1,850,0,stim,poldrack-single-stim,436,584630,0.0-6.2-86.2,go_nogo_deval,438,,<img class = center src='/static/experiments/go_nogo_deval/images/purple_circle.png'></img>,32,850,test,purple_circle,nogo1,-1,28,2,,,,,,,-1,-1,1400,0,ITI,poldrack-single-stim,437,586031,0.0-6.2-87.2,go_nogo_deval,438,,<div></div>,32,1400,test,,,,,,,,,,,,-1,-1,500,0,fixation,poldrack-single-stim,438,586533,0.0-6.2-88.2,go_nogo_deval,438,,<div class = centerbox><div class = fixation>+</div></div>,none,500,test,,,,,,,,,,,,-1,-1,850,0,stim,poldrack-single-stim,439,587385,0.0-6.2-89.2,go_nogo_deval,438,,<img class = center src='/static/experiments/go_nogo_deval/images/green_triangle.png'></img>,32,850,test,green_triangle,nogo2,-1,29,2,,,,,,,-1,-1,1400,0,ITI,poldrack-single-stim,440,588786,0.0-6.2-90.2,go_nogo_deval,438,,<div></div>,32,1400,test,,,,,,,,,,,,-1,-1,500,0,fixation,poldrack-single-stim,441,589287,0.0-6.2-91.2,go_nogo_deval,438,,<div class = centerbox><div class = fixation>+</div></div>,none,500,test,,,,,,,,,,,,467,32,850,0,stim,poldrack-single-stim,442,590140,0.0-6.2-92.2,go_nogo_deval,438,,<img class = center src='/static/experiments/go_nogo_deval/images/red_rhombus.png'></img>,32,850,test,red_rhombus,go2,32,30,2,,,,,,,-1,-1,1400,0,ITI,poldrack-single-stim,443,591542,0.0-6.2-93.2,go_nogo_deval,438,,<div></div>,32,1400,test,,,,,,,,,,,,-1,-1,500,0,fixation,poldrack-single-stim,444,592042,0.0-6.2-94.2,go_nogo_deval,438,,<div class = centerbox><div class = fixation>+</div></div>,none,500,test,,,,,,,,,,,,299,32,850,0,stim,poldrack-single-stim,445,592894,0.0-6.2-95.2,go_nogo_deval,438,,<img class = center src='/static/experiments/go_nogo_deval/images/blue_pentagon.png'></img>,32,850,test,blue_pentagon,go1,32,31,2,,,,,,,-1,-1,1400,0,ITI,poldrack-single-stim,446,594296,0.0-6.2-96.2,go_nogo_deval,438,,<div></div>,32,1400,test,,,,,,,,,,,,-1,-1,500,0,fixation,poldrack-single-stim,447,594797,0.0-6.2-97.2,go_nogo_deval,438,,<div class = centerbox><div class = fixation>+</div></div>,none,500,test,,,,,,,,,,,,380,32,850,0,stim,poldrack-single-stim,448,595649,0.0-6.2-98.2,go_nogo_deval,438,,<img class = center src='/static/experiments/go_nogo_deval/images/red_rhombus.png'></img>,32,850,test,red_rhombus,go2,32,32,2,,,,,,,-1,-1,1400,0,ITI,poldrack-single-stim,449,597050,0.0-6.2-99.2,go_nogo_deval,438,,<div></div>,32,1400,test,,,,,,,,,,,,-1,-1,500,0,fixation,poldrack-single-stim,450,597551,0.0-6.2-100.2,go_nogo_deval,438,,<div class = centerbox><div class = fixation>+</div></div>,none,500,test,,,,,,,,,,,,315,32,850,0,stim,poldrack-single-stim,451,598403,0.0-6.2-101.2,go_nogo_deval,438,,<img class = center src='/static/experiments/go_nogo_deval/images/blue_pentagon.png'></img>,32,850,test,blue_pentagon,go1,32,33,2,,,,,,,-1,-1,1400,0,ITI,poldrack-single-stim,452,599805,0.0-6.2-102.2,go_nogo_deval,438,,<div></div>,32,1400,test,,,,,,,,,,,,-1,-1,500,0,fixation,poldrack-single-stim,453,600307,0.0-6.2-103.2,go_nogo_deval,438,,<div class = centerbox><div class = fixation>+</div></div>,none,500,test,,,,,,,,,,,,406,32,850,0,stim,poldrack-single-stim,454,601158,0.0-6.2-104.2,go_nogo_deval,438,,<img class = center src='/static/experiments/go_nogo_deval/images/red_rhombus.png'></img>,32,850,test,red_rhombus,go2,32,34,2,,,,,,,-1,-1,1400,0,ITI,poldrack-single-stim,455,602560,0.0-6.2-105.2,go_nogo_deval,438,,<div></div>,32,1400,test,,,,,,,,,,,,-1,-1,500,0,fixation,poldrack-single-stim,456,603060,0.0-6.2-106.2,go_nogo_deval,438,,<div class = centerbox><div class = fixation>+</div></div>,none,500,test,,,,,,,,,,,,306,32,850,0,stim,poldrack-single-stim,457,603912,0.0-6.2-107.2,go_nogo_deval,438,,<img class = center src='/static/experiments/go_nogo_deval/images/blue_pentagon.png'></img>,32,850,test,blue_pentagon,go1,32,35,2,,,,,,,-1,-1,1400,0,ITI,poldrack-single-stim,458,605314,0.0-6.2-108.2,go_nogo_deval,438,,<div></div>,32,1400,test,,,,,,,,,,,,-1,-1,500,0,fixation,poldrack-single-stim,459,605816,0.0-6.2-109.2,go_nogo_deval,438,,<div class = centerbox><div class = fixation>+</div></div>,none,500,test,,,,,,,,,,,,-1,-1,850,0,stim,poldrack-single-stim,460,606667,0.0-6.2-110.2,go_nogo_deval,438,,<img class = center src='/static/experiments/go_nogo_deval/images/green_triangle.png'></img>,32,850,test,green_triangle,nogo2,-1,36,2,,,,,,,-1,-1,1400,0,ITI,poldrack-single-stim,461,608069,0.0-6.2-111.2,go_nogo_deval,438,,<div></div>,32,1400,test,,,,,,,,,,,,-1,-1,500,0,fixation,poldrack-single-stim,462,608570,0.0-6.2-112.2,go_nogo_deval,438,,<div class = centerbox><div class = fixation>+</div></div>,none,500,test,,,,,,,,,,,,478,32,850,0,stim,poldrack-single-stim,463,609422,0.0-6.2-113.2,go_nogo_deval,438,,<img class = center src='/static/experiments/go_nogo_deval/images/blue_pentagon.png'></img>,32,850,test,blue_pentagon,go1,32,37,2,,,,,,,-1,-1,1400,0,ITI,poldrack-single-stim,464,610823,0.0-6.2-114.2,go_nogo_deval,438,,<div></div>,32,1400,test,,,,,,,,,,,,-1,-1,500,0,fixation,poldrack-single-stim,465,611324,0.0-6.2-115.2,go_nogo_deval,438,,<div class = centerbox><div class = fixation>+</div></div>,none,500,test,,,,,,,,,,,,391,32,850,0,stim,poldrack-single-stim,466,612175,0.0-6.2-116.2,go_nogo_deval,438,,<img class = center src='/static/experiments/go_nogo_deval/images/blue_pentagon.png'></img>,32,850,test,blue_pentagon,go1,32,38,2,,,,,,,-1,-1,1400,0,ITI,poldrack-single-stim,467,613577,0.0-6.2-117.2,go_nogo_deval,438,,<div></div>,32,1400,test,,,,,,,,,,,,-1,-1,500,0,fixation,poldrack-single-stim,468,614079,0.0-6.2-118.2,go_nogo_deval,438,,<div class = centerbox><div class = fixation>+</div></div>,none,500,test,,,,,,,,,,,,-1,-1,850,0,stim,poldrack-single-stim,469,614931,0.0-6.2-119.2,go_nogo_deval,438,,<img class = center src='/static/experiments/go_nogo_deval/images/green_triangle.png'></img>,32,850,test,green_triangle,nogo2,-1,39,2,,,,,,,-1,-1,1400,0,ITI,poldrack-single-stim,470,616332,0.0-6.2-120.2,go_nogo_deval,438,,<div></div>,32,1400,test,,,,,,,,,,,,-1,-1,500,0,fixation,poldrack-single-stim,471,616833,0.0-6.2-121.2,go_nogo_deval,438,,<div class = centerbox><div class = fixation>+</div></div>,none,500,test,,,,,,,,,,,,315,32,850,0,stim,poldrack-single-stim,472,617686,0.0-6.2-122.2,go_nogo_deval,438,,<img class = center src='/static/experiments/go_nogo_deval/images/red_rhombus.png'></img>,32,850,test,red_rhombus,go2,32,40,2,,,,,,,-1,-1,1400,0,ITI,poldrack-single-stim,473,619088,0.0-6.2-123.2,go_nogo_deval,438,,<div></div>,32,1400,test,,,,,,,,,,,,-1,-1,500,0,fixation,poldrack-single-stim,474,619589,0.0-6.2-124.2,go_nogo_deval,438,,<div class = centerbox><div class = fixation>+</div></div>,none,500,test,,,,,,,,,,,,395,32,850,0,stim,poldrack-single-stim,475,620441,0.0-6.2-125.2,go_nogo_deval,438,,<img class = center src='/static/experiments/go_nogo_deval/images/red_rhombus.png'></img>,32,850,test,red_rhombus,go2,32,41,2,,,,,,,-1,-1,1400,0,ITI,poldrack-single-stim,476,621842,0.0-6.2-126.2,go_nogo_deval,438,,<div></div>,32,1400,test,,,,,,,,,,,,-1,-1,500,0,fixation,poldrack-single-stim,477,622344,0.0-6.2-127.2,go_nogo_deval,438,,<div class = centerbox><div class = fixation>+</div></div>,none,500,test,,,,,,,,,,,,328,32,850,0,stim,poldrack-single-stim,478,623196,0.0-6.2-128.2,go_nogo_deval,438,,<img class = center src='/static/experiments/go_nogo_deval/images/blue_pentagon.png'></img>,32,850,test,blue_pentagon,go1,32,42,2,,,,,,,-1,-1,1400,0,ITI,poldrack-single-stim,479,624598,0.0-6.2-129.2,go_nogo_deval,438,,<div></div>,32,1400,test,,,,,,,,,,,,-1,-1,500,0,fixation,poldrack-single-stim,480,625099,0.0-6.2-130.2,go_nogo_deval,438,,<div class = centerbox><div class = fixation>+</div></div>,none,500,test,,,,,,,,,,,,306,32,850,0,stim,poldrack-single-stim,481,625950,0.0-6.2-131.2,go_nogo_deval,438,,<img class = center src='/static/experiments/go_nogo_deval/images/blue_pentagon.png'></img>,32,850,test,blue_pentagon,go1,32,43,2,,,,,,,-1,-1,1400,0,ITI,poldrack-single-stim,482,627351,0.0-6.2-132.2,go_nogo_deval,438,,<div></div>,32,1400,test,,,,,,,,,,,,-1,-1,500,0,fixation,poldrack-single-stim,483,627853,0.0-6.2-133.2,go_nogo_deval,438,,<div class = centerbox><div class = fixation>+</div></div>,none,500,test,,,,,,,,,,,,-1,-1,850,0,stim,poldrack-single-stim,484,628705,0.0-6.2-134.2,go_nogo_deval,438,,<img class = center src='/static/experiments/go_nogo_deval/images/green_triangle.png'></img>,32,850,test,green_triangle,nogo2,-1,44,2,,,,,,,-1,-1,1400,0,ITI,poldrack-single-stim,485,630106,0.0-6.2-135.2,go_nogo_deval,438,,<div></div>,32,1400,test,,,,,,,,,,,,-1,-1,500,0,fixation,poldrack-single-stim,486,630607,0.0-6.2-136.2,go_nogo_deval,438,,<div class = centerbox><div class = fixation>+</div></div>,none,500,test,,,,,,,,,,,,402,32,850,0,stim,poldrack-single-stim,487,631459,0.0-6.2-137.2,go_nogo_deval,438,,<img class = center src='/static/experiments/go_nogo_deval/images/red_rhombus.png'></img>,32,850,test,red_rhombus,go2,32,45,2,,,,,,,-1,-1,1400,0,ITI,poldrack-single-stim,488,632861,0.0-6.2-138.2,go_nogo_deval,438,,<div></div>,32,1400,test,,,,,,,,,,,,-1,-1,500,0,fixation,poldrack-single-stim,489,633361,0.0-6.2-139.2,go_nogo_deval,438,,<div class = centerbox><div class = fixation>+</div></div>,none,500,test,,,,,,,,,,,,370,32,850,0,stim,poldrack-single-stim,490,634213,0.0-6.2-140.2,go_nogo_deval,438,,<img class = center src='/static/experiments/go_nogo_deval/images/red_rhombus.png'></img>,32,850,test,red_rhombus,go2,32,46,2,,,,,,,-1,-1,1400,0,ITI,poldrack-single-stim,491,635615,0.0-6.2-141.2,go_nogo_deval,438,,<div></div>,32,1400,test,,,,,,,,,,,,-1,-1,500,0,fixation,poldrack-single-stim,492,636116,0.0-6.2-142.2,go_nogo_deval,438,,<div class = centerbox><div class = fixation>+</div></div>,none,500,test,,,,,,,,,,,,-1,-1,850,0,stim,poldrack-single-stim,493,636967,0.0-6.2-143.2,go_nogo_deval,438,,<img class = center src='/static/experiments/go_nogo_deval/images/purple_circle.png'></img>,32,850,test,purple_circle,nogo1,-1,47,2,,,,,,,-1,-1,1400,0,ITI,poldrack-single-stim,494,638369,0.0-6.2-144.2,go_nogo_deval,438,,<div></div>,32,1400,test,,,,,,,,,,,,71420,13,71420,0,practice-no-stop-feedback,poldrack-single-stim,495,709794,0.0-6.3-0.3,go_nogo_deval,438,,<div class = centerbox><p class = block-text><br>Please take this time to read your feedback and to take a short break! Press enter to continue</p><p class = block-text><strong>Average reaction time:  369 ms. Accuracy: 100%</strong></p></div>,13,71420,,,,,,,,,,,,,-1,-1,500,0,fixation,poldrack-single-stim,496,710296,0.0-6.3-1.3,go_nogo_deval,438,,<div class = centerbox><div class = fixation>+</div></div>,none,500,test,,,,,,,,,,,,341,32,850,0,stim,poldrack-single-stim,497,711148,0.0-6.3-2.3,go_nogo_deval,438,,<img class = center src='/static/experiments/go_nogo_deval/images/blue_pentagon.png'></img>,32,850,test,blue_pentagon,go1,32,0,3,,,,,,,-1,-1,1400,0,ITI,poldrack-single-stim,498,712549,0.0-6.3-3.3,go_nogo_deval,438,,<div></div>,32,1400,test,,,,,,,,,,,,-1,-1,500,0,fixation,poldrack-single-stim,499,713050,0.0-6.3-4.3,go_nogo_deval,438,,<div class = centerbox><div class = fixation>+</div></div>,none,500,test,,,,,,,,,,,,276,32,850,0,stim,poldrack-single-stim,500,713902,0.0-6.3-5.3,go_nogo_deval,438,,<img class = center src='/static/experiments/go_nogo_deval/images/red_rhombus.png'></img>,32,850,test,red_rhombus,go2,32,1,3,,,,,,,-1,-1,1400,0,ITI,poldrack-single-stim,501,715304,0.0-6.3-6.3,go_nogo_deval,438,,<div></div>,32,1400,test,,,,,,,,,,,,-1,-1,500,0,fixation,poldrack-single-stim,502,715804,0.0-6.3-7.3,go_nogo_deval,438,,<div class = centerbox><div class = fixation>+</div></div>,none,500,test,,,,,,,,,,,,322,32,850,0,stim,poldrack-single-stim,503,716656,0.0-6.3-8.3,go_nogo_deval,438,,<img class = center src='/static/experiments/go_nogo_deval/images/red_rhombus.png'></img>,32,850,test,red_rhombus,go2,32,2,3,,,,,,,-1,-1,1400,0,ITI,poldrack-single-stim,504,718058,0.0-6.3-9.3,go_nogo_deval,438,,<div></div>,32,1400,test,,,,,,,,,,,,-1,-1,500,0,fixation,poldrack-single-stim,505,718559,0.0-6.3-10.3,go_nogo_deval,438,,<div class = centerbox><div class = fixation>+</div></div>,none,500,test,,,,,,,,,,,,302,32,850,0,stim,poldrack-single-stim,506,719411,0.0-6.3-11.3,go_nogo_deval,438,,<img class = center src='/static/experiments/go_nogo_deval/images/red_rhombus.png'></img>,32,850,test,red_rhombus,go2,32,3,3,,,,,,,-1,-1,1400,0,ITI,poldrack-single-stim,507,720812,0.0-6.3-12.3,go_nogo_deval,438,,<div></div>,32,1400,test,,,,,,,,,,,,-1,-1,500,0,fixation,poldrack-single-stim,508,721313,0.0-6.3-13.3,go_nogo_deval,438,,<div class = centerbox><div class = fixation>+</div></div>,none,500,test,,,,,,,,,,,,305,32,850,0,stim,poldrack-single-stim,509,722165,0.0-6.3-14.3,go_nogo_deval,438,,<img class = center src='/static/experiments/go_nogo_deval/images/red_rhombus.png'></img>,32,850,test,red_rhombus,go2,32,4,3,,,,,,,-1,-1,1400,0,ITI,poldrack-single-stim,510,723567,0.0-6.3-15.3,go_nogo_deval,438,,<div></div>,32,1400,test,,,,,,,,,,,,-1,-1,500,0,fixation,poldrack-single-stim,511,724068,0.0-6.3-16.3,go_nogo_deval,438,,<div class = centerbox><div class = fixation>+</div></div>,none,500,test,,,,,,,,,,,,283,32,850,0,stim,poldrack-single-stim,512,724919,0.0-6.3-17.3,go_nogo_deval,438,,<img class = center src='/static/experiments/go_nogo_deval/images/red_rhombus.png'></img>,32,850,test,red_rhombus,go2,32,5,3,,,,,,,-1,-1,1400,0,ITI,poldrack-single-stim,513,726321,0.0-6.3-18.3,go_nogo_deval,438,,<div></div>,32,1400,test,,,,,,,,,,,,-1,-1,500,0,fixation,poldrack-single-stim,514,726823,0.0-6.3-19.3,go_nogo_deval,438,,<div class = centerbox><div class = fixation>+</div></div>,none,500,test,,,,,,,,,,,,-1,-1,850,0,stim,poldrack-single-stim,515,727674,0.0-6.3-20.3,go_nogo_deval,438,,<img class = center src='/static/experiments/go_nogo_deval/images/purple_circle.png'></img>,32,850,test,purple_circle,nogo1,-1,6,3,,,,,,,-1,-1,1400,0,ITI,poldrack-single-stim,516,729076,0.0-6.3-21.3,go_nogo_deval,438,,<div></div>,32,1400,test,,,,,,,,,,,,-1,-1,500,0,fixation,poldrack-single-stim,517,729578,0.0-6.3-22.3,go_nogo_deval,438,,<div class = centerbox><div class = fixation>+</div></div>,none,500,test,,,,,,,,,,,,353,32,850,0,stim,poldrack-single-stim,518,730429,0.0-6.3-23.3,go_nogo_deval,438,,<img class = center src='/static/experiments/go_nogo_deval/images/red_rhombus.png'></img>,32,850,test,red_rhombus,go2,32,7,3,,,,,,,-1,-1,1400,0,ITI,poldrack-single-stim,519,731831,0.0-6.3-24.3,go_nogo_deval,438,,<div></div>,32,1400,test,,,,,,,,,,,,-1,-1,500,0,fixation,poldrack-single-stim,520,732332,0.0-6.3-25.3,go_nogo_deval,438,,<div class = centerbox><div class = fixation>+</div></div>,none,500,test,,,,,,,,,,,,-1,-1,850,0,stim,poldrack-single-stim,521,733184,0.0-6.3-26.3,go_nogo_deval,438,,<img class = center src='/static/experiments/go_nogo_deval/images/green_triangle.png'></img>,32,850,test,green_triangle,nogo2,-1,8,3,,,,,,,-1,-1,1400,0,ITI,poldrack-single-stim,522,734586,0.0-6.3-27.3,go_nogo_deval,438,,<div></div>,32,1400,test,,,,,,,,,,,,-1,-1,500,0,fixation,poldrack-single-stim,523,735087,0.0-6.3-28.3,go_nogo_deval,438,,<div class = centerbox><div class = fixation>+</div></div>,none,500,test,,,,,,,,,,,,-1,-1,850,0,stim,poldrack-single-stim,524,735938,0.0-6.3-29.3,go_nogo_deval,438,,<img class = center src='/static/experiments/go_nogo_deval/images/purple_circle.png'></img>,32,850,test,purple_circle,nogo1,-1,9,3,,,,,,,-1,-1,1400,0,ITI,poldrack-single-stim,525,737340,0.0-6.3-30.3,go_nogo_deval,438,,<div></div>,32,1400,test,,,,,,,,,,,,-1,-1,500,0,fixation,poldrack-single-stim,526,737841,0.0-6.3-31.3,go_nogo_deval,438,,<div class = centerbox><div class = fixation>+</div></div>,none,500,test,,,,,,,,,,,,-1,-1,850,0,stim,poldrack-single-stim,527,738693,0.0-6.3-32.3,go_nogo_deval,438,,<img class = center src='/static/experiments/go_nogo_deval/images/green_triangle.png'></img>,32,850,test,green_triangle,nogo2,-1,10,3,,,,,,,-1,-1,1400,0,ITI,poldrack-single-stim,528,740094,0.0-6.3-33.3,go_nogo_deval,438,,<div></div>,32,1400,test,,,,,,,,,,,,-1,-1,500,0,fixation,poldrack-single-stim,529,740596,0.0-6.3-34.3,go_nogo_deval,438,,<div class = centerbox><div class = fixation>+</div></div>,none,500,test,,,,,,,,,,,,417,32,850,0,stim,poldrack-single-stim,530,741447,0.0-6.3-35.3,go_nogo_deval,438,,<img class = center src='/static/experiments/go_nogo_deval/images/blue_pentagon.png'></img>,32,850,test,blue_pentagon,go1,32,11,3,,,,,,,-1,-1,1400,0,ITI,poldrack-single-stim,531,742849,0.0-6.3-36.3,go_nogo_deval,438,,<div></div>,32,1400,test,,,,,,,,,,,,-1,-1,500,0,fixation,poldrack-single-stim,532,743351,0.0-6.3-37.3,go_nogo_deval,438,,<div class = centerbox><div class = fixation>+</div></div>,none,500,test,,,,,,,,,,,,406,32,850,0,stim,poldrack-single-stim,533,744202,0.0-6.3-38.3,go_nogo_deval,438,,<img class = center src='/static/experiments/go_nogo_deval/images/blue_pentagon.png'></img>,32,850,test,blue_pentagon,go1,32,12,3,,,,,,,-1,-1,1400,0,ITI,poldrack-single-stim,534,745603,0.0-6.3-39.3,go_nogo_deval,438,,<div></div>,32,1400,test,,,,,,,,,,,,-1,-1,500,0,fixation,poldrack-single-stim,535,746105,0.0-6.3-40.3,go_nogo_deval,438,,<div class = centerbox><div class = fixation>+</div></div>,none,500,test,,,,,,,,,,,,397,32,850,0,stim,poldrack-single-stim,536,746956,0.0-6.3-41.3,go_nogo_deval,438,,<img class = center src='/static/experiments/go_nogo_deval/images/red_rhombus.png'></img>,32,850,test,red_rhombus,go2,32,13,3,,,,,,,-1,-1,1400,0,ITI,poldrack-single-stim,537,748356,0.0-6.3-42.3,go_nogo_deval,438,,<div></div>,32,1400,test,,,,,,,,,,,,-1,-1,500,0,fixation,poldrack-single-stim,538,748858,0.0-6.3-43.3,go_nogo_deval,438,,<div class = centerbox><div class = fixation>+</div></div>,none,500,test,,,,,,,,,,,,378,32,850,0,stim,poldrack-single-stim,539,749710,0.0-6.3-44.3,go_nogo_deval,438,,<img class = center src='/static/experiments/go_nogo_deval/images/blue_pentagon.png'></img>,32,850,test,blue_pentagon,go1,32,14,3,,,,,,,-1,-1,1400,0,ITI,poldrack-single-stim,540,751112,0.0-6.3-45.3,go_nogo_deval,438,,<div></div>,32,1400,test,,,,,,,,,,,,-1,-1,500,0,fixation,poldrack-single-stim,541,751614,0.0-6.3-46.3,go_nogo_deval,438,,<div class = centerbox><div class = fixation>+</div></div>,none,500,test,,,,,,,,,,,,356,32,850,0,stim,poldrack-single-stim,542,752464,0.0-6.3-47.3,go_nogo_deval,438,,<img class = center src='/static/experiments/go_nogo_deval/images/red_rhombus.png'></img>,32,850,test,red_rhombus,go2,32,15,3,,,,,,,-1,-1,1400,0,ITI,poldrack-single-stim,543,753866,0.0-6.3-48.3,go_nogo_deval,438,,<div></div>,32,1400,test,,,,,,,,,,,,-1,-1,500,0,fixation,poldrack-single-stim,544,754368,0.0-6.3-49.3,go_nogo_deval,438,,<div class = centerbox><div class = fixation>+</div></div>,none,500,test,,,,,,,,,,,,-1,-1,850,0,stim,poldrack-single-stim,545,755220,0.0-6.3-50.3,go_nogo_deval,438,,<img class = center src='/static/experiments/go_nogo_deval/images/purple_circle.png'></img>,32,850,test,purple_circle,nogo1,-1,16,3,,,,,,,-1,-1,1400,0,ITI,poldrack-single-stim,546,756622,0.0-6.3-51.3,go_nogo_deval,438,,<div></div>,32,1400,test,,,,,,,,,,,,-1,-1,500,0,fixation,poldrack-single-stim,547,757124,0.0-6.3-52.3,go_nogo_deval,438,,<div class = centerbox><div class = fixation>+</div></div>,none,500,test,,,,,,,,,,,,347,32,850,0,stim,poldrack-single-stim,548,757975,0.0-6.3-53.3,go_nogo_deval,438,,<img class = center src='/static/experiments/go_nogo_deval/images/red_rhombus.png'></img>,32,850,test,red_rhombus,go2,32,17,3,,,,,,,-1,-1,1400,0,ITI,poldrack-single-stim,549,759377,0.0-6.3-54.3,go_nogo_deval,438,,<div></div>,32,1400,test,,,,,,,,,,,,-1,-1,500,0,fixation,poldrack-single-stim,550,759880,0.0-6.3-55.3,go_nogo_deval,438,,<div class = centerbox><div class = fixation>+</div></div>,none,500,test,,,,,,,,,,,,-1,-1,850,0,stim,poldrack-single-stim,551,760732,0.0-6.3-56.3,go_nogo_deval,438,,<img class = center src='/static/experiments/go_nogo_deval/images/purple_circle.png'></img>,32,850,test,purple_circle,nogo1,-1,18,3,,,,,,,-1,-1,1400,0,ITI,poldrack-single-stim,552,762133,0.0-6.3-57.3,go_nogo_deval,438,,<div></div>,32,1400,test,,,,,,,,,,,,-1,-1,500,0,fixation,poldrack-single-stim,553,762635,0.0-6.3-58.3,go_nogo_deval,438,,<div class = centerbox><div class = fixation>+</div></div>,none,500,test,,,,,,,,,,,,438,32,850,0,stim,poldrack-single-stim,554,763487,0.0-6.3-59.3,go_nogo_deval,438,,<img class = center src='/static/experiments/go_nogo_deval/images/red_rhombus.png'></img>,32,850,test,red_rhombus,go2,32,19,3,,,,,,,-1,-1,1400,0,ITI,poldrack-single-stim,555,764889,0.0-6.3-60.3,go_nogo_deval,438,,<div></div>,32,1400,test,,,,,,,,,,,,-1,-1,500,0,fixation,poldrack-single-stim,556,765390,0.0-6.3-61.3,go_nogo_deval,438,,<div class = centerbox><div class = fixation>+</div></div>,none,500,test,,,,,,,,,,,,-1,-1,850,0,stim,poldrack-single-stim,557,766242,0.0-6.3-62.3,go_nogo_deval,438,,<img class = center src='/static/experiments/go_nogo_deval/images/purple_circle.png'></img>,32,850,test,purple_circle,nogo1,-1,20,3,,,,,,,-1,-1,1400,0,ITI,poldrack-single-stim,558,767643,0.0-6.3-63.3,go_nogo_deval,438,,<div></div>,32,1400,test,,,,,,,,,,,,-1,-1,500,0,fixation,poldrack-single-stim,559,768145,0.0-6.3-64.3,go_nogo_deval,438,,<div class = centerbox><div class = fixation>+</div></div>,none,500,test,,,,,,,,,,,,374,32,850,0,stim,poldrack-single-stim,560,768996,0.0-6.3-65.3,go_nogo_deval,438,,<img class = center src='/static/experiments/go_nogo_deval/images/blue_pentagon.png'></img>,32,850,test,blue_pentagon,go1,32,21,3,,,,,,,-1,-1,1400,0,ITI,poldrack-single-stim,561,770398,0.0-6.3-66.3,go_nogo_deval,438,,<div></div>,32,1400,test,,,,,,,,,,,,-1,-1,500,0,fixation,poldrack-single-stim,562,770900,0.0-6.3-67.3,go_nogo_deval,438,,<div class = centerbox><div class = fixation>+</div></div>,none,500,test,,,,,,,,,,,,375,32,850,0,stim,poldrack-single-stim,563,771752,0.0-6.3-68.3,go_nogo_deval,438,,<img class = center src='/static/experiments/go_nogo_deval/images/blue_pentagon.png'></img>,32,850,test,blue_pentagon,go1,32,22,3,,,,,,,-1,-1,1400,0,ITI,poldrack-single-stim,564,773152,0.0-6.3-69.3,go_nogo_deval,438,,<div></div>,32,1400,test,,,,,,,,,,,,-1,-1,500,0,fixation,poldrack-single-stim,565,773653,0.0-6.3-70.3,go_nogo_deval,438,,<div class = centerbox><div class = fixation>+</div></div>,none,500,test,,,,,,,,,,,,333,32,850,0,stim,poldrack-single-stim,566,774505,0.0-6.3-71.3,go_nogo_deval,438,,<img class = center src='/static/experiments/go_nogo_deval/images/red_rhombus.png'></img>,32,850,test,red_rhombus,go2,32,23,3,,,,,,,-1,-1,1400,0,ITI,poldrack-single-stim,567,775906,0.0-6.3-72.3,go_nogo_deval,438,,<div></div>,32,1400,test,,,,,,,,,,,,-1,-1,500,0,fixation,poldrack-single-stim,568,776408,0.0-6.3-73.3,go_nogo_deval,438,,<div class = centerbox><div class = fixation>+</div></div>,none,500,test,,,,,,,,,,,,-1,-1,850,0,stim,poldrack-single-stim,569,777259,0.0-6.3-74.3,go_nogo_deval,438,,<img class = center src='/static/experiments/go_nogo_deval/images/green_triangle.png'></img>,32,850,test,green_triangle,nogo2,-1,24,3,,,,,,,-1,-1,1400,0,ITI,poldrack-single-stim,570,778661,0.0-6.3-75.3,go_nogo_deval,438,,<div></div>,32,1400,test,,,,,,,,,,,,-1,-1,500,0,fixation,poldrack-single-stim,571,779162,0.0-6.3-76.3,go_nogo_deval,438,,<div class = centerbox><div class = fixation>+</div></div>,none,500,test,,,,,,,,,,,,-1,-1,850,0,stim,poldrack-single-stim,572,780013,0.0-6.3-77.3,go_nogo_deval,438,,<img class = center src='/static/experiments/go_nogo_deval/images/green_triangle.png'></img>,32,850,test,green_triangle,nogo2,-1,25,3,,,,,,,-1,-1,1400,0,ITI,poldrack-single-stim,573,781415,0.0-6.3-78.3,go_nogo_deval,438,,<div></div>,32,1400,test,,,,,,,,,,,