text,rt,key_press,block_duration,timing_post_trial,trial_id,trial_type,trial_index,time_elapsed,internal_node_id,exp_id,subject_ID,view_history,stimulus,possible_responses,stim_duration,exp_stage,stim,go_nogo_type,correct_response,current_trial,current_block,chosenStim,chosenCond,stimLeft,cond_left,stimRight,cond_right<div class = centerbox><p class = center-block-text>Welcome to the task!</p><p class = center-block-text>Press<strong> enter</strong> to continue.</p></div>,1860,13,1860,0,welcome,poldrack-text,0,1862,0.0-0.0,go_nogo_deval,436,,,,,,,,,,,,,,,,,47218,,,,instruction,poldrack-instructions,1,49083,0.0-1.0,go_nogo_deval,436,"[{""page_index"":0,""viewing_time"":3748},{""page_index"":1,""viewing_time"":43470}]",,,,,,,,,,,,,,,,9309,13,9309,0,stop_intro_phase1,poldrack-single-stim,2,59395,0.0-2.0,go_nogo_deval,436,,"<div class = centerbox><p class = block-text>We will now start the practice for the experiment.<br><br>For these trials, you must press the <strong>spacebar </strong> or have <strong>no response</strong> depending on the shape of the stimulus.  Make sure to respond as quickly and accurately as possible to the shape. <br><br> The responses for each shape are as follows: <ul list-text><li>triangle: spacebar</li><li>circle: spacebar</li><li>pentagon: no response</li><li>rhombus: no response</li></ul></p><p class = block-text>Remember these rules before you proceed.</p><p class = block-text>Press <strong> enter</strong> to begin.</p></div>",13,9309,,,,,,,,,,,,,2799,13,2799,0,practice-no-stop-feedback,poldrack-single-stim,3,62195,0.0-3.0-0.0,go_nogo_deval,436,,<div class = centerbox><p class = block-text>We will now start with a practice session. In this practice concentrate on responding quickly and accurately to each stimuli unless it requires no response.</p><p class = block-text>Press enter to continue.</p></div>,13,2799,,,,,,,,,,,,,-1,-1,500,0,prompt_fixation,poldrack-single-stim,4,62698,0.0-3.0-1.0,go_nogo_deval,436,,<div class = centerbox><div class = fixation>+</div></div>,none,500,practice,,,,,,,,,,,,-1,-1,850,0,stim,poldrack-single-stim,5,63550,0.0-3.0-2.0,go_nogo_deval,436,,<img class = center src='/static/experiments/go_nogo_deval/images/blue_pentagon.png'></img>,32,850,practice,blue_pentagon,nogo1,-1,0,0,,,,,,,-1,-1,1400,0,ITI,poldrack-single-stim,6,64953,0.0-3.0-3.0,go_nogo_deval,436,,<div></div>,32,1400,practice,,,,,,,,,,,,-1,-1,500,0,prompt_fixation,poldrack-single-stim,7,65454,0.0-3.0-4.0,go_nogo_deval,436,,<div class = centerbox><div class = fixation>+</div></div>,none,500,practice,,,,,,,,,,,,-1,-1,850,0,stim,poldrack-single-stim,8,66306,0.0-3.0-5.0,go_nogo_deval,436,,<img class = center src='/static/experiments/go_nogo_deval/images/purple_triangle.png'></img>,32,850,practice,purple_triangle,go1,32,1,0,,,,,,,119,32,1400,0,ITI,poldrack-single-stim,9,67708,0.0-3.0-6.0,go_nogo_deval,436,,<div></div>,32,1400,practice,,,,,,,,,,,,-1,-1,500,0,prompt_fixation,poldrack-single-stim,10,68209,0.0-3.0-7.0,go_nogo_deval,436,,<div class = centerbox><div class = fixation>+</div></div>,none,500,practice,,,,,,,,,,,,375,32,850,0,stim,poldrack-single-stim,11,69061,0.0-3.0-8.0,go_nogo_deval,436,,<img class = center src='/static/experiments/go_nogo_deval/images/green_circle.png'></img>,32,850,practice,green_circle,go2,32,2,0,,,,,,,-1,-1,1400,0,ITI,poldrack-single-stim,12,70463,0.0-3.0-9.0,go_nogo_deval,436,,<div></div>,32,1400,practice,,,,,,,,,,,,-1,-1,500,0,prompt_fixation,poldrack-single-stim,13,70965,0.0-3.0-10.0,go_nogo_deval,436,,<div class = centerbox><div class = fixation>+</div></div>,none,500,practice,,,,,,,,,,,,364,32,850,0,stim,poldrack-single-stim,14,71817,0.0-3.0-11.0,go_nogo_deval,436,,<img class = center src='/static/experiments/go_nogo_deval/images/green_circle.png'></img>,32,850,practice,green_circle,go2,32,3,0,,,,,,,-1,-1,1400,0,ITI,poldrack-single-stim,15,73219,0.0-3.0-12.0,go_nogo_deval,436,,<div></div>,32,1400,practice,,,,,,,,,,,,-1,-1,500,0,prompt_fixation,poldrack-single-stim,16,73721,0.0-3.0-13.0,go_nogo_deval,436,,<div class = centerbox><div class = fixation>+</div></div>,none,500,practice,,,,,,,,,,,,388,32,850,0,stim,poldrack-single-stim,17,74573,0.0-3.0-14.0,go_nogo_deval,436,,<img class = center src='/static/experiments/go_nogo_deval/images/purple_triangle.png'></img>,32,850,practice,purple_triangle,go1,32,4,0,,,,,,,-1,-1,1400,0,ITI,poldrack-single-stim,18,75975,0.0-3.0-15.0,go_nogo_deval,436,,<div></div>,32,1400,practice,,,,,,,,,,,,-1,-1,500,0,prompt_fixation,poldrack-single-stim,19,76476,0.0-3.0-16.0,go_nogo_deval,436,,<div class = centerbox><div class = fixation>+</div></div>,none,500,practice,,,,,,,,,,,,-1,-1,850,0,stim,poldrack-single-stim,20,77328,0.0-3.0-17.0,go_nogo_deval,436,,<img class = center src='/static/experiments/go_nogo_deval/images/red_rhombus.png'></img>,32,850,practice,red_rhombus,nogo2,-1,5,0,,,,,,,-1,-1,1400,0,ITI,poldrack-single-stim,21,78729,0.0-3.0-18.0,go_nogo_deval,436,,<div></div>,32,1400,practice,,,,,,,,,,,,-1,-1,500,0,prompt_fixation,poldrack-single-stim,22,79231,0.0-3.0-19.0,go_nogo_deval,436,,<div class = centerbox><div class = fixation>+</div></div>,none,500,practice,,,,,,,,,,,,389,32,850,0,stim,poldrack-single-stim,23,80084,0.0-3.0-20.0,go_nogo_deval,436,,<img class = center src='/static/experiments/go_nogo_deval/images/green_circle.png'></img>,32,850,practice,green_circle,go2,32,6,0,,,,,,,-1,-1,1400,0,ITI,poldrack-single-stim,24,81485,0.0-3.0-21.0,go_nogo_deval,436,,<div></div>,32,1400,practice,,,,,,,,,,,,-1,-1,500,0,prompt_fixation,poldrack-single-stim,25,81987,0.0-3.0-22.0,go_nogo_deval,436,,<div class = centerbox><div class = fixation>+</div></div>,none,500,practice,,,,,,,,,,,,412,32,850,0,stim,poldrack-single-stim,26,82839,0.0-3.0-23.0,go_nogo_deval,436,,<img class = center src='/static/experiments/go_nogo_deval/images/green_circle.png'></img>,32,850,practice,green_circle,go2,32,7,0,,,,,,,-1,-1,1400,0,ITI,poldrack-single-stim,27,84241,0.0-3.0-24.0,go_nogo_deval,436,,<div></div>,32,1400,practice,,,,,,,,,,,,-1,-1,500,0,prompt_fixation,poldrack-single-stim,28,84742,0.0-3.0-25.0,go_nogo_deval,436,,<div class = centerbox><div class = fixation>+</div></div>,none,500,practice,,,,,,,,,,,,323,32,850,0,stim,poldrack-single-stim,29,85594,0.0-3.0-26.0,go_nogo_deval,436,,<img class = center src='/static/experiments/go_nogo_deval/images/green_circle.png'></img>,32,850,practice,green_circle,go2,32,8,0,,,,,,,-1,-1,1400,0,ITI,poldrack-single-stim,30,86996,0.0-3.0-27.0,go_nogo_deval,436,,<div></div>,32,1400,practice,,,,,,,,,,,,-1,-1,500,0,prompt_fixation,poldrack-single-stim,31,87498,0.0-3.0-28.0,go_nogo_deval,436,,<div class = centerbox><div class = fixation>+</div></div>,none,500,practice,,,,,,,,,,,,-1,-1,850,0,stim,poldrack-single-stim,32,88350,0.0-3.0-29.0,go_nogo_deval,436,,<img class = center src='/static/experiments/go_nogo_deval/images/red_rhombus.png'></img>,32,850,practice,red_rhombus,nogo2,-1,9,0,,,,,,,-1,-1,1400,0,ITI,poldrack-single-stim,33,89752,0.0-3.0-30.0,go_nogo_deval,436,,<div></div>,32,1400,practice,,,,,,,,,,,,-1,-1,500,0,prompt_fixation,poldrack-single-stim,34,90254,0.0-3.0-31.0,go_nogo_deval,436,,<div class = centerbox><div class = fixation>+</div></div>,none,500,practice,,,,,,,,,,,,414,32,850,0,stim,poldrack-single-stim,35,91106,0.0-3.0-32.0,go_nogo_deval,436,,<img class = center src='/static/experiments/go_nogo_deval/images/purple_triangle.png'></img>,32,850,practice,purple_triangle,go1,32,10,0,,,,,,,-1,-1,1400,0,ITI,poldrack-single-stim,36,92508,0.0-3.0-33.0,go_nogo_deval,436,,<div></div>,32,1400,practice,,,,,,,,,,,,-1,-1,500,0,prompt_fixation,poldrack-single-stim,37,93009,0.0-3.0-34.0,go_nogo_deval,436,,<div class = centerbox><div class = fixation>+</div></div>,none,500,practice,,,,,,,,,,,,360,32,850,0,stim,poldrack-single-stim,38,93861,0.0-3.0-35.0,go_nogo_deval,436,,<img class = center src='/static/experiments/go_nogo_deval/images/purple_triangle.png'></img>,32,850,practice,purple_triangle,go1,32,11,0,,,,,,,-1,-1,1400,0,ITI,poldrack-single-stim,39,95263,0.0-3.0-36.0,go_nogo_deval,436,,<div></div>,32,1400,practice,,,,,,,,,,,,-1,-1,500,0,prompt_fixation,poldrack-single-stim,40,95765,0.0-3.0-37.0,go_nogo_deval,436,,<div class = centerbox><div class = fixation>+</div></div>,none,500,practice,,,,,,,,,,,,-1,-1,850,0,stim,poldrack-single-stim,41,96616,0.0-3.0-38.0,go_nogo_deval,436,,<img class = center src='/static/experiments/go_nogo_deval/images/blue_pentagon.png'></img>,32,850,practice,blue_pentagon,nogo1,-1,12,0,,,,,,,-1,-1,1400,0,ITI,poldrack-single-stim,42,98018,0.0-3.0-39.0,go_nogo_deval,436,,<div></div>,32,1400,practice,,,,,,,,,,,,-1,-1,500,0,prompt_fixation,poldrack-single-stim,43,98520,0.0-3.0-40.0,go_nogo_deval,436,,<div class = centerbox><div class = fixation>+</div></div>,none,500,practice,,,,,,,,,,,,485,32,850,0,stim,poldrack-single-stim,44,99372,0.0-3.0-41.0,go_nogo_deval,436,,<img class = center src='/static/experiments/go_nogo_deval/images/purple_triangle.png'></img>,32,850,practice,purple_triangle,go1,32,13,0,,,,,,,-1,-1,1400,0,ITI,poldrack-single-stim,45,100774,0.0-3.0-42.0,go_nogo_deval,436,,<div></div>,32,1400,practice,,,,,,,,,,,,-1,-1,500,0,prompt_fixation,poldrack-single-stim,46,101276,0.0-3.0-43.0,go_nogo_deval,436,,<div class = centerbox><div class = fixation>+</div></div>,none,500,practice,,,,,,,,,,,,384,32,850,0,stim,poldrack-single-stim,47,102128,0.0-3.0-44.0,go_nogo_deval,436,,<img class = center src='/static/experiments/go_nogo_deval/images/green_circle.png'></img>,32,850,practice,green_circle,go2,32,14,0,,,,,,,-1,-1,1400,0,ITI,poldrack-single-stim,48,103529,0.0-3.0-45.0,go_nogo_deval,436,,<div></div>,32,1400,practice,,,,,,,,,,,,-1,-1,500,0,prompt_fixation,poldrack-single-stim,49,104031,0.0-3.0-46.0,go_nogo_deval,436,,<div class = centerbox><div class = fixation>+</div></div>,none,500,practice,,,,,,,,,,,,295,32,850,0,stim,poldrack-single-stim,50,104883,0.0-3.0-47.0,go_nogo_deval,436,,<img class = center src='/static/experiments/go_nogo_deval/images/purple_triangle.png'></img>,32,850,practice,purple_triangle,go1,32,15,0,,,,,,,-1,-1,1400,0,ITI,poldrack-single-stim,51,106284,0.0-3.0-48.0,go_nogo_deval,436,,<div></div>,32,1400,practice,,,,,,,,,,,,-1,-1,500,0,prompt_fixation,poldrack-single-stim,52,106786,0.0-3.0-49.0,go_nogo_deval,436,,<div class = centerbox><div class = fixation>+</div></div>,none,500,practice,,,,,,,,,,,,-1,-1,850,0,stim,poldrack-single-stim,53,107637,0.0-3.0-50.0,go_nogo_deval,436,,<img class = center src='/static/experiments/go_nogo_deval/images/blue_pentagon.png'></img>,32,850,practice,blue_pentagon,nogo1,-1,16,0,,,,,,,-1,-1,1400,0,ITI,poldrack-single-stim,54,109039,0.0-3.0-51.0,go_nogo_deval,436,,<div></div>,32,1400,practice,,,,,,,,,,,,-1,-1,500,0,prompt_fixation,poldrack-single-stim,55,109540,0.0-3.0-52.0,go_nogo_deval,436,,<div class = centerbox><div class = fixation>+</div></div>,none,500,practice,,,,,,,,,,,,-1,-1,850,0,stim,poldrack-single-stim,56,110392,0.0-3.0-53.0,go_nogo_deval,436,,<img class = center src='/static/experiments/go_nogo_deval/images/red_rhombus.png'></img>,32,850,practice,red_rhombus,nogo2,-1,17,0,,,,,,,-1,-1,1400,0,ITI,poldrack-single-stim,57,111793,0.0-3.0-54.0,go_nogo_deval,436,,<div></div>,32,1400,practice,,,,,,,,,,,,3479,13,3479,0,practice-no-stop-feedback,poldrack-single-stim,58,115274,0.0-4.0,go_nogo_deval,436,,<div class = centerbox><p class = block-text><br>Please take this time to read your feedback and to take a short break! Press enter to continue</p><p class = block-text><strong>Average reaction time:  381 ms. Accuracy: 94%</strong></p><p class = block-text>Done with this practice.</p></div>,13,3479,,,,,,,,,,,,,30206,13,30206,0,main_stop_intro_phase3,poldrack-single-stim,59,145480,0.0-5.0,go_nogo_deval,436,,"<div class = centerbox><p class = block-text>We will now start the main phase of the experiment.<br><br>These trials are the same as the trials that you have just completed. <br><br>The rules for each shape are as follows:  <br><ul list-text><li>triangle: spacebar</li><li>circle: spacebar</li><li>pentagon: no response</li><li>rhombus: no response</li></ul></p><p class = block-text>Remember these rules before you proceed, as they will no longer be presented during the trial.</p><p class = block-text>Press <strong> enter</strong> to begin.</p></div>",13,30206,,,,,,,,,,,,,4308,13,4308,0,practice-no-stop-feedback,poldrack-single-stim,60,149788,0.0-6.0-0.0,go_nogo_deval,436,,"<div class = centerbox><p class = block-text>We will now start with a test session. In this test, concentrate on responding quickly and accurately to each stimuli unless it requires no response.</p><p class = block-text>Press enter to continue.</p></div>",13,4308,,,,,,,,,,,,,-1,-1,500,0,fixation,poldrack-single-stim,61,150290,0.0-6.0-1.0,go_nogo_deval,436,,<div class = centerbox><div class = fixation>+</div></div>,none,500,test,,,,,,,,,,,,364,32,850,0,stim,poldrack-single-stim,62,151142,0.0-6.0-2.0,go_nogo_deval,436,,<img class = center src='/static/experiments/go_nogo_deval/images/purple_triangle.png'></img>,32,850,test,purple_triangle,go1,32,0,0,,,,,,,-1,-1,1400,0,ITI,poldrack-single-stim,63,152544,0.0-6.0-3.0,go_nogo_deval,436,,<div></div>,32,1400,test,,,,,,,,,,,,-1,-1,500,0,fixation,poldrack-single-stim,64,153045,0.0-6.0-4.0,go_nogo_deval,436,,<div class = centerbox><div class = fixation>+</div></div>,none,500,test,,,,,,,,,,,,309,32,850,0,stim,poldrack-single-stim,65,153897,0.0-6.0-5.0,go_nogo_deval,436,,<img class = center src='/static/experiments/go_nogo_deval/images/green_circle.png'></img>,32,850,test,green_circle,go2,32,1,0,,,,,,,-1,-1,1400,0,ITI,poldrack-single-stim,66,155299,0.0-6.0-6.0,go_nogo_deval,436,,<div></div>,32,1400,test,,,,,,,,,,,,-1,-1,500,0,fixation,poldrack-single-stim,67,155800,0.0-6.0-7.0,go_nogo_deval,436,,<div class = centerbox><div class = fixation>+</div></div>,none,500,test,,,,,,,,,,,,300,32,850,0,stim,poldrack-single-stim,68,156651,0.0-6.0-8.0,go_nogo_deval,436,,<img class = center src='/static/experiments/go_nogo_deval/images/blue_pentagon.png'></img>,32,850,test,blue_pentagon,nogo1,-1,2,0,,,,,,,-1,-1,1400,0,ITI,poldrack-single-stim,69,158053,0.0-6.0-9.0,go_nogo_deval,436,,<div></div>,32,1400,test,,,,,,,,,,,,-1,-1,500,0,fixation,poldrack-single-stim,70,158555,0.0-6.0-10.0,go_nogo_deval,436,,<div class = centerbox><div class = fixation>+</div></div>,none,500,test,,,,,,,,,,,,-1,-1,850,0,stim,poldrack-single-stim,71,159407,0.0-6.0-11.0,go_nogo_deval,436,,<img class = center src='/static/experiments/go_nogo_deval/images/red_rhombus.png'></img>,32,850,test,red_rhombus,nogo2,-1,3,0,,,,,,,-1,-1,1400,0,ITI,poldrack-single-stim,72,160808,0.0-6.0-12.0,go_nogo_deval,436,,<div></div>,32,1400,test,,,,,,,,,,,,-1,-1,500,0,fixation,poldrack-single-stim,73,161310,0.0-6.0-13.0,go_nogo_deval,436,,<div class = centerbox><div class = fixation>+</div></div>,none,500,test,,,,,,,,,,,,392,32,850,0,stim,poldrack-single-stim,74,162160,0.0-6.0-14.0,go_nogo_deval,436,,<img class = center src='/static/experiments/go_nogo_deval/images/purple_triangle.png'></img>,32,850,test,purple_triangle,go1,32,4,0,,,,,,,-1,-1,1400,0,ITI,poldrack-single-stim,75,163562,0.0-6.0-15.0,go_nogo_deval,436,,<div></div>,32,1400,test,,,,,,,,,,,,-1,-1,500,0,fixation,poldrack-single-stim,76,164064,0.0-6.0-16.0,go_nogo_deval,436,,<div class = centerbox><div class = fixation>+</div></div>,none,500,test,,,,,,,,,,,,359,32,850,0,stim,poldrack-single-stim,77,164916,0.0-6.0-17.0,go_nogo_deval,436,,<img class = center src='/static/experiments/go_nogo_deval/images/green_circle.png'></img>,32,850,test,green_circle,go2,32,5,0,,,,,,,-1,-1,1400,0,ITI,poldrack-single-stim,78,166318,0.0-6.0-18.0,go_nogo_deval,436,,<div></div>,32,1400,test,,,,,,,,,,,,-1,-1,500,0,fixation,poldrack-single-stim,79,166820,0.0-6.0-19.0,go_nogo_deval,436,,<div class = centerbox><div class = fixation>+</div></div>,none,500,test,,,,,,,,,,,,-1,-1,850,0,stim,poldrack-single-stim,80,167671,0.0-6.0-20.0,go_nogo_deval,436,,<img class = center src='/static/experiments/go_nogo_deval/images/red_rhombus.png'></img>,32,850,test,red_rhombus,nogo2,-1,6,0,,,,,,,-1,-1,1400,0,ITI,poldrack-single-stim,81,169073,0.0-6.0-21.0,go_nogo_deval,436,,<div></div>,32,1400,test,,,,,,,,,,,,-1,-1,500,0,fixation,poldrack-single-stim,82,169575,0.0-6.0-22.0,go_nogo_deval,436,,<div class = centerbox><div class = fixation>+</div></div>,none,500,test,,,,,,,,,,,,385,32,850,0,stim,poldrack-single-stim,83,170426,0.0-6.0-23.0,go_nogo_deval,436,,<img class = center src='/static/experiments/go_nogo_deval/images/green_circle.png'></img>,32,850,test,green_circle,go2,32,7,0,,,,,,,-1,-1,1400,0,ITI,poldrack-single-stim,84,171828,0.0-6.0-24.0,go_nogo_deval,436,,<div></div>,32,1400,test,,,,,,,,,,,,-1,-1,500,0,fixation,poldrack-single-stim,85,172329,0.0-6.0-25.0,go_nogo_deval,436,,<div class = centerbox><div class = fixation>+</div></div>,none,500,test,,,,,,,,,,,,352,32,850,0,stim,poldrack-single-stim,86,173181,0.0-6.0-26.0,go_nogo_deval,436,,<img class = center src='/static/experiments/go_nogo_deval/images/green_circle.png'></img>,32,850,test,green_circle,go2,32,8,0,,,,,,,-1,-1,1400,0,ITI,poldrack-single-stim,87,174582,0.0-6.0-27.0,go_nogo_deval,436,,<div></div>,32,1400,test,,,,,,,,,,,,-1,-1,500,0,fixation,poldrack-single-stim,88,175084,0.0-6.0-28.0,go_nogo_deval,436,,<div class = centerbox><div class = fixation>+</div></div>,none,500,test,,,,,,,,,,,,467,32,850,0,stim,poldrack-single-stim,89,175935,0.0-6.0-29.0,go_nogo_deval,436,,<img class = center src='/static/experiments/go_nogo_deval/images/purple_triangle.png'></img>,32,850,test,purple_triangle,go1,32,9,0,,,,,,,-1,-1,1400,0,ITI,poldrack-single-stim,90,177336,0.0-6.0-30.0,go_nogo_deval,436,,<div></div>,32,1400,test,,,,,,,,,,,,-1,-1,500,0,fixation,poldrack-single-stim,91,177838,0.0-6.0-31.0,go_nogo_deval,436,,<div class = centerbox><div class = fixation>+</div></div>,none,500,test,,,,,,,,,,,,367,32,850,0,stim,poldrack-single-stim,92,178690,0.0-6.0-32.0,go_nogo_deval,436,,<img class = center src='/static/experiments/go_nogo_deval/images/green_circle.png'></img>,32,850,test,green_circle,go2,32,10,0,,,,,,,-1,-1,1400,0,ITI,poldrack-single-stim,93,180091,0.0-6.0-33.0,go_nogo_deval,436,,<div></div>,32,1400,test,,,,,,,,,,,,-1,-1,500,0,fixation,poldrack-single-stim,94,180593,0.0-6.0-34.0,go_nogo_deval,436,,<div class = centerbox><div class = fixation>+</div></div>,none,500,test,,,,,,,,,,,,-1,-1,850,0,stim,poldrack-single-stim,95,181444,0.0-6.0-35.0,go_nogo_deval,436,,<img class = center src='/static/experiments/go_nogo_deval/images/red_rhombus.png'></img>,32,850,test,red_rhombus,nogo2,-1,11,0,,,,,,,-1,-1,1400,0,ITI,poldrack-single-stim,96,182846,0.0-6.0-36.0,go_nogo_deval,436,,<div></div>,32,1400,test,,,,,,,,,,,,-1,-1,500,0,fixation,poldrack-single-stim,97,183348,0.0-6.0-37.0,go_nogo_deval,436,,<div class = centerbox><div class = fixation>+</div></div>,none,500,test,,,,,,,,,,,,371,32,850,0,stim,poldrack-single-stim,98,184200,0.0-6.0-38.0,go_nogo_deval,436,,<img class = center src='/static/experiments/go_nogo_deval/images/purple_triangle.png'></img>,32,850,test,purple_triangle,go1,32,12,0,,,,,,,-1,-1,1400,0,ITI,poldrack-single-stim,99,185601,0.0-6.0-39.0,go_nogo_deval,436,,<div></div>,32,1400,test,,,,,,,,,,,,-1,-1,500,0,fixation,poldrack-single-stim,100,186103,0.0-6.0-40.0,go_nogo_deval,436,,<div class = centerbox><div class = fixation>+</div></div>,none,500,test,,,,,,,,,,,,506,32,850,0,stim,poldrack-single-stim,101,186955,0.0-6.0-41.0,go_nogo_deval,436,,<img class = center src='/static/experiments/go_nogo_deval/images/purple_triangle.png'></img>,32,850,test,purple_triangle,go1,32,13,0,,,,,,,-1,-1,1400,0,ITI,poldrack-single-stim,102,188357,0.0-6.0-42.0,go_nogo_deval,436,,<div></div>,32,1400,test,,,,,,,,,,,,-1,-1,500,0,fixation,poldrack-single-stim,103,188858,0.0-6.0-43.0,go_nogo_deval,436,,<div class = centerbox><div class = fixation>+</div></div>,none,500,test,,,,,,,,,,,,361,32,850,0,stim,poldrack-single-stim,104,189710,0.0-6.0-44.0,go_nogo_deval,436,,<img class = center src='/static/experiments/go_nogo_deval/images/purple_triangle.png'></img>,32,850,test,purple_triangle,go1,32,14,0,,,,,,,-1,-1,1400,0,ITI,poldrack-single-stim,105,191111,0.0-6.0-45.0,go_nogo_deval,436,,<div></div>,32,1400,test,,,,,,,,,,,,-1,-1,500,0,fixation,poldrack-single-stim,106,191613,0.0-6.0-46.0,go_nogo_deval,436,,<div class = centerbox><div class = fixation>+</div></div>,none,500,test,,,,,,,,,,,,-1,-1,850,0,stim,poldrack-single-stim,107,192465,0.0-6.0-47.0,go_nogo_deval,436,,<img class = center src='/static/experiments/go_nogo_deval/images/blue_pentagon.png'></img>,32,850,test,blue_pentagon,nogo1,-1,15,0,,,,,,,-1,-1,1400,0,ITI,poldrack-single-stim,108,193868,0.0-6.0-48.0,go_nogo_deval,436,,<div></div>,32,1400,test,,,,,,,,,,,,-1,-1,500,0,fixation,poldrack-single-stim,109,194370,0.0-6.0-49.0,go_nogo_deval,436,,<div class = centerbox><div class = fixation>+</div></div>,none,500,test,,,,,,,,,,,,497,32,850,0,stim,poldrack-single-stim,110,195221,0.0-6.0-50.0,go_nogo_deval,436,,<img class = center src='/static/experiments/go_nogo_deval/images/green_circle.png'></img>,32,850,test,green_circle,go2,32,16,0,,,,,,,-1,-1,1400,0,ITI,poldrack-single-stim,111,196623,0.0-6.0-51.0,go_nogo_deval,436,,<div></div>,32,1400,test,,,,,,,,,,,,-1,-1,500,0,fixation,poldrack-single-stim,112,197124,0.0-6.0-52.0,go_nogo_deval,436,,<div class = centerbox><div class = fixation>+</div></div>,none,500,test,,,,,,,,,,,,488,32,850,0,stim,poldrack-single-stim,113,197976,0.0-6.0-53.0,go_nogo_deval,436,,<img class = center src='/static/experiments/go_nogo_deval/images/purple_triangle.png'></img>,32,850,test,purple_triangle,go1,32,17,0,,,,,,,-1,-1,1400,0,ITI,poldrack-single-stim,114,199377,0.0-6.0-54.0,go_nogo_deval,436,,<div></div>,32,1400,test,,,,,,,,,,,,-1,-1,500,0,fixation,poldrack-single-stim,115,199879,0.0-6.0-55.0,go_nogo_deval,436,,<div class = centerbox><div class = fixation>+</div></div>,none,500,test,,,,,,,,,,,,-1,-1,850,0,stim,poldrack-single-stim,116,200731,0.0-6.0-56.0,go_nogo_deval,436,,<img class = center src='/static/experiments/go_nogo_deval/images/red_rhombus.png'></img>,32,850,test,red_rhombus,nogo2,-1,18,0,,,,,,,-1,-1,1400,0,ITI,poldrack-single-stim,117,202132,0.0-6.0-57.0,go_nogo_deval,436,,<div></div>,32,1400,test,,,,,,,,,,,,-1,-1,500,0,fixation,poldrack-single-stim,118,202634,0.0-6.0-58.0,go_nogo_deval,436,,<div class = centerbox><div class = fixation>+</div></div>,none,500,test,,,,,,,,,,,,-1,-1,850,0,stim,poldrack-single-stim,119,203484,0.0-6.0-59.0,go_nogo_deval,436,,<img class = center src='/static/experiments/go_nogo_deval/images/red_rhombus.png'></img>,32,850,test,red_rhombus,nogo2,-1,19,0,,,,,,,-1,-1,1400,0,ITI,poldrack-single-stim,120,204886,0.0-6.0-60.0,go_nogo_deval,436,,<div></div>,32,1400,test,,,,,,,,,,,,-1,-1,500,0,fixation,poldrack-single-stim,121,205388,0.0-6.0-61.0,go_nogo_deval,436,,<div class = centerbox><div class = fixation>+</div></div>,none,500,test,,,,,,,,,,,,369,32,850,0,stim,poldrack-single-stim,122,206240,0.0-6.0-62.0,go_nogo_deval,436,,<img class = center src='/static/experiments/go_nogo_deval/images/green_circle.png'></img>,32,850,test,green_circle,go2,32,20,0,,,,,,,-1,-1,1400,0,ITI,poldrack-single-stim,123,207641,0.0-6.0-63.0,go_nogo_deval,436,,<div></div>,32,1400,test,,,,,,,,,,,,-1,-1,500,0,fixation,poldrack-single-stim,124,208143,0.0-6.0-64.0,go_nogo_deval,436,,<div class = centerbox><div class = fixation>+</div></div>,none,500,test,,,,,,,,,,,,303,32,850,0,stim,poldrack-single-stim,125,208995,0.0-6.0-65.0,go_nogo_deval,436,,<img class = center src='/static/experiments/go_nogo_deval/images/red_rhombus.png'></img>,32,850,test,red_rhombus,nogo2,-1,21,0,,,,,,,-1,-1,1400,0,ITI,poldrack-single-stim,126,210397,0.0-6.0-66.0,go_nogo_deval,436,,<div></div>,32,1400,test,,,,,,,,,,,,-1,-1,500,0,fixation,poldrack-single-stim,127,210899,0.0-6.0-67.0,go_nogo_deval,436,,<div class = centerbox><div class = fixation>+</div></div>,none,500,test,,,,,,,,,,,,483,32,850,0,stim,poldrack-single-stim,128,211750,0.0-6.0-68.0,go_nogo_deval,436,,<img class = center src='/static/experiments/go_nogo_deval/images/purple_triangle.png'></img>,32,850,test,purple_triangle,go1,32,22,0,,,,,,,-1,-1,1400,0,ITI,poldrack-single-stim,129,213152,0.0-6.0-69.0,go_nogo_deval,436,,<div></div>,32,1400,test,,,,,,,,,,,,-1,-1,500,0,fixation,poldrack-single-stim,130,213654,0.0-6.0-70.0,go_nogo_deval,436,,<div class = centerbox><div class = fixation>+</div></div>,none,500,test,,,,,,,,,,,,383,32,850,0,stim,poldrack-single-stim,131,214507,0.0-6.0-71.0,go_nogo_deval,436,,<img class = center src='/static/experiments/go_nogo_deval/images/green_circle.png'></img>,32,850,test,green_circle,go2,32,23,0,,,,,,,-1,-1,1400,0,ITI,poldrack-single-stim,132,215910,0.0-6.0-72.0,go_nogo_deval,436,,<div></div>,32,1400,test,,,,,,,,,,,,-1,-1,500,0,fixation,poldrack-single-stim,133,216411,0.0-6.0-73.0,go_nogo_deval,436,,<div class = centerbox><div class = fixation>+</div></div>,none,500,test,,,,,,,,,,,,438,32,850,0,stim,poldrack-single-stim,134,217263,0.0-6.0-74.0,go_nogo_deval,436,,<img class = center src='/static/experiments/go_nogo_deval/images/green_circle.png'></img>,32,850,test,green_circle,go2,32,24,0,,,,,,,-1,-1,1400,0,ITI,poldrack-single-stim,135,218664,0.0-6.0-75.0,go_nogo_deval,436,,<div></div>,32,1400,test,,,,,,,,,,,,-1,-1,500,0,fixation,poldrack-single-stim,136,219165,0.0-6.0-76.0,go_nogo_deval,436,,<div class = centerbox><div class = fixation>+</div></div>,none,500,test,,,,,,,,,,,,-1,-1,850,0,stim,poldrack-single-stim,137,220016,0.0-6.0-77.0,go_nogo_deval,436,,<img class = center src='/static/experiments/go_nogo_deval/images/blue_pentagon.png'></img>,32,850,test,blue_pentagon,nogo1,-1,25,0,,,,,,,-1,-1,1400,0,ITI,poldrack-single-stim,138,221418,0.0-6.0-78.0,go_nogo_deval,436,,<div></div>,32,1400,test,,,,,,,,,,,,-1,-1,500,0,fixation,poldrack-single-stim,139,221920,0.0-6.0-79.0,go_nogo_deval,436,,<div class = centerbox><div class = fixation>+</div></div>,none,500,test,,,,,,,,,,,,-1,-1,850,0,stim,poldrack-single-stim,140,222772,0.0-6.0-80.0,go_nogo_deval,436,,<img class = center src='/static/experiments/go_nogo_deval/images/blue_pentagon.png'></img>,32,850,test,blue_pentagon,nogo1,-1,26,0,,,,,,,-1,-1,1400,0,ITI,poldrack-single-stim,141,224174,0.0-6.0-81.0,go_nogo_deval,436,,<div></div>,32,1400,test,,,,,,,,,,,,-1,-1,500,0,fixation,poldrack-single-stim,142,224676,0.0-6.0-82.0,go_nogo_deval,436,,<div class = centerbox><div class = fixation>+</div></div>,none,500,test,,,,,,,,,,,,622,32,850,0,stim,poldrack-single-stim,143,225528,0.0-6.0-83.0,go_nogo_deval,436,,<img class = center src='/static/experiments/go_nogo_deval/images/purple_triangle.png'></img>,32,850,test,purple_triangle,go1,32,27,0,,,,,,,-1,-1,1400,0,ITI,poldrack-single-stim,144,226929,0.0-6.0-84.0,go_nogo_deval,436,,<div></div>,32,1400,test,,,,,,,,,,,,-1,-1,500,0,fixation,poldrack-single-stim,145,227431,0.0-6.0-85.0,go_nogo_deval,436,,<div class = centerbox><div class = fixation>+</div></div>,none,500,test,,,,,,,,,,,,-1,-1,850,0,stim,poldrack-single-stim,146,228282,0.0-6.0-86.0,go_nogo_deval,436,,<img class = center src='/static/experiments/go_nogo_deval/images/blue_pentagon.png'></img>,32,850,test,blue_pentagon,nogo1,-1,28,0,,,,,,,-1,-1,1400,0,ITI,poldrack-single-stim,147,229684,0.0-6.0-87.0,go_nogo_deval,436,,<div></div>,32,1400,test,,,,,,,,,,,,-1,-1,500,0,fixation,poldrack-single-stim,148,230185,0.0-6.0-88.0,go_nogo_deval,436,,<div class = centerbox><div class = fixation>+</div></div>,none,500,test,,,,,,,,,,,,413,32,850,0,stim,poldrack-single-stim,149,231037,0.0-6.0-89.0,go_nogo_deval,436,,<img class = center src='/static/experiments/go_nogo_deval/images/purple_triangle.png'></img>,32,850,test,purple_triangle,go1,32,29,0,,,,,,,-1,-1,1400,0,ITI,poldrack-single-stim,150,232438,0.0-6.0-90.0,go_nogo_deval,436,,<div></div>,32,1400,test,,,,,,,,,,,,-1,-1,500,0,fixation,poldrack-single-stim,151,232940,0.0-6.0-91.0,go_nogo_deval,436,,<div class = centerbox><div class = fixation>+</div></div>,none,500,test,,,,,,,,,,,,323,32,850,0,stim,poldrack-single-stim,152,233791,0.0-6.0-92.0,go_nogo_deval,436,,<img class = center src='/static/experiments/go_nogo_deval/images/green_circle.png'></img>,32,850,test,green_circle,go2,32,30,0,,,,,,,-1,-1,1400,0,ITI,poldrack-single-stim,153,235193,0.0-6.0-93.0,go_nogo_deval,436,,<div></div>,32,1400,test,,,,,,,,,,,,-1,-1,500,0,fixation,poldrack-single-stim,154,235695,0.0-6.0-94.0,go_nogo_deval,436,,<div class = centerbox><div class = fixation>+</div></div>,none,500,test,,,,,,,,,,,,-1,-1,850,0,stim,poldrack-single-stim,155,236547,0.0-6.0-95.0,go_nogo_deval,436,,<img class = center src='/static/experiments/go_nogo_deval/images/blue_pentagon.png'></img>,32,850,test,blue_pentagon,nogo1,-1,31,0,,,,,,,-1,-1,1400,0,ITI,poldrack-single-stim,156,237948,0.0-6.0-96.0,go_nogo_deval,436,,<div></div>,32,1400,test,,,,,,,,,,,,-1,-1,500,0,fixation,poldrack-single-stim,157,238449,0.0-6.0-97.0,go_nogo_deval,436,,<div class = centerbox><div class = fixation>+</div></div>,none,500,test,,,,,,,,,,,,-1,-1,850,0,stim,poldrack-single-stim,158,239301,0.0-6.0-98.0,go_nogo_deval,436,,<img class = center src='/static/experiments/go_nogo_deval/images/red_rhombus.png'></img>,32,850,test,red_rhombus,nogo2,-1,32,0,,,,,,,-1,-1,1400,0,ITI,poldrack-single-stim,159,240703,0.0-6.0-99.0,go_nogo_deval,436,,<div></div>,32,1400,test,,,,,,,,,,,,-1,-1,500,0,fixation,poldrack-single-stim,160,241205,0.0-6.0-100.0,go_nogo_deval,436,,<div class = centerbox><div class = fixation>+</div></div>,none,500,test,,,,,,,,,,,,395,32,850,0,stim,poldrack-single-stim,161,242057,0.0-6.0-101.0,go_nogo_deval,436,,<img class = center src='/static/experiments/go_nogo_deval/images/green_circle.png'></img>,32,850,test,green_circle,go2,32,33,0,,,,,,,-1,-1,1400,0,ITI,poldrack-single-stim,162,243458,0.0-6.0-102.0,go_nogo_deval,436,,<div></div>,32,1400,test,,,,,,,,,,,,-1,-1,500,0,fixation,poldrack-single-stim,163,243960,0.0-6.0-103.0,go_nogo_deval,436,,<div class = centerbox><div class = fixation>+</div></div>,none,500,test,,,,,,,,,,,,474,32,850,0,stim,poldrack-single-stim,164,244812,0.0-6.0-104.0,go_nogo_deval,436,,<img class = center src='/static/experiments/go_nogo_deval/images/purple_triangle.png'></img>,32,850,test,purple_triangle,go1,32,34,0,,,,,,,-1,-1,1400,0,ITI,poldrack-single-stim,165,246214,0.0-6.0-105.0,go_nogo_deval,436,,<div></div>,32,1400,test,,,,,,,,,,,,-1,-1,500,0,fixation,poldrack-single-stim,166,246715,0.0-6.0-106.0,go_nogo_deval,436,,<div class = centerbox><div class = fixation>+</div></div>,none,500,test,,,,,,,,,,,,454,32,850,0,stim,poldrack-single-stim,167,247567,0.0-6.0-107.0,go_nogo_deval,436,,<img class = center src='/static/experiments/go_nogo_deval/images/purple_triangle.png'></img>,32,850,test,purple_triangle,go1,32,35,0,,,,,,,-1,-1,1400,0,ITI,poldrack-single-stim,168,248969,0.0-6.0-108.0,go_nogo_deval,436,,<div></div>,32,1400,test,,,,,,,,,,,,-1,-1,500,0,fixation,poldrack-single-stim,169,249469,0.0-6.0-109.0,go_nogo_deval,436,,<div class = centerbox><div class = fixation>+</div></div>,none,500,test,,,,,,,,,,,,376,32,850,0,stim,poldrack-single-stim,170,250321,0.0-6.0-110.0,go_nogo_deval,436,,<img class = center src='/static/experiments/go_nogo_deval/images/purple_triangle.png'></img>,32,850,test,purple_triangle,go1,32,36,0,,,,,,,-1,-1,1400,0,ITI,poldrack-single-stim,171,251722,0.0-6.0-111.0,go_nogo_deval,436,,<div></div>,32,1400,test,,,,,,,,,,,,-1,-1,500,0,fixation,poldrack-single-stim,172,252224,0.0-6.0-112.0,go_nogo_deval,436,,<div class = centerbox><div class = fixation>+</div></div>,none,500,test,,,,,,,,,,,,-1,-1,850,0,stim,poldrack-single-stim,173,253075,0.0-6.0-113.0,go_nogo_deval,436,,<img class = center src='/static/experiments/go_nogo_deval/images/blue_pentagon.png'></img>,32,850,test,blue_pentagon,nogo1,-1,37,0,,,,,,,-1,-1,1400,0,ITI,poldrack-single-stim,174,254477,0.0-6.0-114.0,go_nogo_deval,436,,<div></div>,32,1400,test,,,,,,,,,,,,-1,-1,500,0,fixation,poldrack-single-stim,175,254978,0.0-6.0-115.0,go_nogo_deval,436,,<div class = centerbox><div class = fixation>+</div></div>,none,500,test,,,,,,,,,,,,426,32,850,0,stim,poldrack-single-stim,176,255830,0.0-6.0-116.0,go_nogo_deval,436,,<img class = center src='/static/experiments/go_nogo_deval/images/green_circle.png'></img>,32,850,test,green_circle,go2,32,38,0,,,,,,,-1,-1,1400,0,ITI,poldrack-single-stim,177,257231,0.0-6.0-117.0,go_nogo_deval,436,,<div></div>,32,1400,test,,,,,,,,,,,,-1,-1,500,0,fixation,poldrack-single-stim,178,257733,0.0-6.0-118.0,go_nogo_deval,436,,<div class = centerbox><div class = fixation>+</div></div>,none,500,test,,,,,,,,,,,,404,32,850,0,stim,poldrack-single-stim,179,258585,0.0-6.0-119.0,go_nogo_deval,436,,<img class = center src='/static/experiments/go_nogo_deval/images/green_circle.png'></img>,32,850,test,green_circle,go2,32,39,0,,,,,,,-1,-1,1400,0,ITI,poldrack-single-stim,180,259987,0.0-6.0-120.0,go_nogo_deval,436,,<div></div>,32,1400,test,,,,,,,,,,,,-1,-1,500,0,fixation,poldrack-single-stim,181,260489,0.0-6.0-121.0,go_nogo_deval,436,,<div class = centerbox><div class = fixation>+</div></div>,none,500,test,,,,,,,,,,,,517,32,850,0,stim,poldrack-single-stim,182,261340,0.0-6.0-122.0,go_nogo_deval,436,,<img class = center src='/static/experiments/go_nogo_deval/images/purple_triangle.png'></img>,32,850,test,purple_triangle,go1,32,40,0,,,,,,,-1,-1,1400,0,ITI,poldrack-single-stim,183,262742,0.0-6.0-123.0,go_nogo_deval,436,,<div></div>,32,1400,test,,,,,,,,,,,,-1,-1,500,0,fixation,poldrack-single-stim,184,263243,0.0-6.0-124.0,go_nogo_deval,436,,<div class = centerbox><div class = fixation>+</div></div>,none,500,test,,,,,,,,,,,,373,32,850,0,stim,poldrack-single-stim,185,264095,0.0-6.0-125.0,go_nogo_deval,436,,<img class = center src='/static/experiments/go_nogo_deval/images/purple_triangle.png'></img>,32,850,test,purple_triangle,go1,32,41,0,,,,,,,-1,-1,1400,0,ITI,poldrack-single-stim,186,265496,0.0-6.0-126.0,go_nogo_deval,436,,<div></div>,32,1400,test,,,,,,,,,,,,-1,-1,500,0,fixation,poldrack-single-stim,187,265998,0.0-6.0-127.0,go_nogo_deval,436,,<div class = centerbox><div class = fixation>+</div></div>,none,500,test,,,,,,,,,,,,-1,-1,850,0,stim,poldrack-single-stim,188,266849,0.0-6.0-128.0,go_nogo_deval,436,,<img class = center src='/static/experiments/go_nogo_deval/images/red_rhombus.png'></img>,32,850,test,red_rhombus,nogo2,-1,42,0,,,,,,,-1,-1,1400,0,ITI,poldrack-single-stim,189,268250,0.0-6.0-129.0,go_nogo_deval,436,,<div></div>,32,1400,test,,,,,,,,,,,,-1,-1,500,0,fixation,poldrack-single-stim,190,268752,0.0-6.0-130.0,go_nogo_deval,436,,<div class = centerbox><div class = fixation>+</div></div>,none,500,test,,,,,,,,,,,,410,32,850,0,stim,poldrack-single-stim,191,269604,0.0-6.0-131.0,go_nogo_deval,436,,<img class = center src='/static/experiments/go_nogo_deval/images/green_circle.png'></img>,32,850,test,green_circle,go2,32,43,0,,,,,,,-1,-1,1400,0,ITI,poldrack-single-stim,192,271005,0.0-6.0-132.0,go_nogo_deval,436,,<div></div>,32,1400,test,,,,,,,,,,,,-1,-1,500,0,fixation,poldrack-single-stim,193,271507,0.0-6.0-133.0,go_nogo_deval,436,,<div class = centerbox><div class = fixation>+</div></div>,none,500,test,,,,,,,,,,,,389,32,850,0,stim,poldrack-single-stim,194,272359,0.0-6.0-134.0,go_nogo_deval,436,,<img class = center src='/static/experiments/go_nogo_deval/images/green_circle.png'></img>,32,850,test,green_circle,go2,32,44,0,,,,,,,-1,-1,1400,0,ITI,poldrack-single-stim,195,273761,0.0-6.0-135.0,go_nogo_deval,436,,<div></div>,32,1400,test,,,,,,,,,,,,-1,-1,500,0,fixation,poldrack-single-stim,196,274261,0.0-6.0-136.0,go_nogo_deval,436,,<div class = centerbox><div class = fixation>+</div></div>,none,500,test,,,,,,,,,,,,357,32,850,0,stim,poldrack-single-stim,197,275113,0.0-6.0-137.0,go_nogo_deval,436,,<img class = center src='/static/experiments/go_nogo_deval/images/green_circle.png'></img>,32,850,test,green_circle,go2,32,45,0,,,,,,,-1,-1,1400,0,ITI,poldrack-single-stim,198,276515,0.0-6.0-138.0,go_nogo_deval,436,,<div></div>,32,1400,test,,,,,,,,,,,,-1,-1,500,0,fixation,poldrack-single-stim,199,277016,0.0-6.0-139.0,go_nogo_deval,436,,<div class = centerbox><div class = fixation>+</div></div>,none,500,test,,,,,,,,,,,,460,32,850,0,stim,poldrack-single-stim,200,277868,0.0-6.0-140.0,go_nogo_deval,436,,<img class = center src='/static/experiments/go_nogo_deval/images/purple_triangle.png'></img>,32,850,test,purple_triangle,go1,32,46,0,,,,,,,-1,-1,1400,0,ITI,poldrack-single-stim,201,279270,0.0-6.0-141.0,go_nogo_deval,436,,<div></div>,32,1400,test,,,,,,,,,,,,-1,-1,500,0,fixation,poldrack-single-stim,202,279771,0.0-6.0-142.0,go_nogo_deval,436,,<div class = centerbox><div class = fixation>+</div></div>,none,500,test,,,,,,,,,,,,-1,-1,850,0,stim,poldrack-single-stim,203,280623,0.0-6.0-143.0,go_nogo_deval,436,,<img class = center src='/static/experiments/go_nogo_deval/images/blue_pentagon.png'></img>,32,850,test,blue_pentagon,nogo1,-1,47,0,,,,,,,-1,-1,1400,0,ITI,poldrack-single-stim,204,282024,0.0-6.0-144.0,go_nogo_deval,436,,<div></div>,32,1400,test,,,,,,,,,,,,12438,13,12438,0,practice-no-stop-feedback,poldrack-single-stim,205,294465,0.0-6.1-0.1,go_nogo_deval,436,,"<div class = centerbox><p class = block-text><br>Please take this time to read your feedback and to take a short break! Press enter to continue</p><p class = block-text><strong>Average reaction time:  408 ms. Accuracy: 96%</strong></p><p class = block-text>We have detected a number of trials that <strong>required no response</strong>, where a response was made.  Please <strong>ensure that you do not respond </strong>to shapes that require no response</p></div>",13,12438,,,,,,,,,,,,,-1,-1,500,0,fixation,poldrack-single-stim,206,294967,0.0-6.1-1.1,go_nogo_deval,436,,<div class = centerbox><div class = fixation>+</div></div>,none,500,test,,,,,,,,,,,,397,32,850,0,stim,poldrack-single-stim,207,295819,0.0-6.1-2.1,go_nogo_deval,436,,<img class = center src='/static/experiments/go_nogo_deval/images/purple_triangle.png'></img>,32,850,test,purple_triangle,go1,32,0,1,,,,,,,-1,-1,1400,0,ITI,poldrack-single-stim,208,297220,0.0-6.1-3.1,go_nogo_deval,436,,<div></div>,32,1400,test,,,,,,,,,,,,-1,-1,500,0,fixation,poldrack-single-stim,209,297722,0.0-6.1-4.1,go_nogo_deval,436,,<div class = centerbox><div class = fixation>+</div></div>,none,500,test,,,,,,,,,,,,-1,-1,850,0,stim,poldrack-single-stim,210,298574,0.0-6.1-5.1,go_nogo_deval,436,,<img class = center src='/static/experiments/go_nogo_deval/images/blue_pentagon.png'></img>,32,850,test,blue_pentagon,nogo1,-1,1,1,,,,,,,-1,-1,1400,0,ITI,poldrack-single-stim,211,299976,0.0-6.1-6.1,go_nogo_deval,436,,<div></div>,32,1400,test,,,,,,,,,,,,-1,-1,500,0,fixation,poldrack-single-stim,212,300477,0.0-6.1-7.1,go_nogo_deval,436,,<div class = centerbox><div class = fixation>+</div></div>,none,500,test,,,,,,,,,,,,466,32,850,0,stim,poldrack-single-stim,213,301329,0.0-6.1-8.1,go_nogo_deval,436,,<img class = center src='/static/experiments/go_nogo_deval/images/purple_triangle.png'></img>,32,850,test,purple_triangle,go1,32,2,1,,,,,,,-1,-1,1400,0,ITI,poldrack-single-stim,214,302731,0.0-6.1-9.1,go_nogo_deval,436,,<div></div>,32,1400,test,,,,,,,,,,,,-1,-1,500,0,fixation,poldrack-single-stim,215,303232,0.0-6.1-10.1,go_nogo_deval,436,,<div class = centerbox><div class = fixation>+</div></div>,none,500,test,,,,,,,,,,,,456,32,850,0,stim,poldrack-single-stim,216,304084,0.0-6.1-11.1,go_nogo_deval,436,,<img class = center src='/static/experiments/go_nogo_deval/images/green_circle.png'></img>,32,850,test,green_circle,go2,32,3,1,,,,,,,-1,-1,1400,0,ITI,poldrack-single-stim,217,305485,0.0-6.1-12.1,go_nogo_deval,436,,<div></div>,32,1400,test,,,,,,,,,,,,-1,-1,500,0,fixation,poldrack-single-stim,218,305987,0.0-6.1-13.1,go_nogo_deval,436,,<div class = centerbox><div class = fixation>+</div></div>,none,500,test,,,,,,,,,,,,425,32,850,0,stim,poldrack-single-stim,219,306838,0.0-6.1-14.1,go_nogo_deval,436,,<img class = center src='/static/experiments/go_nogo_deval/images/purple_triangle.png'></img>,32,850,test,purple_triangle,go1,32,4,1,,,,,,,-1,-1,1400,0,ITI,poldrack-single-stim,220,308239,0.0-6.1-15.1,go_nogo_deval,436,,<div></div>,32,1400,test,,,,,,,,,,,,-1,-1,500,0,fixation,poldrack-single-stim,221,308741,0.0-6.1-16.1,go_nogo_deval,436,,<div class = centerbox><div class = fixation>+</div></div>,none,500,test,,,,,,,,,,,,-1,-1,850,0,stim,poldrack-single-stim,222,309593,0.0-6.1-17.1,go_nogo_deval,436,,<img class = center src='/static/experiments/go_nogo_deval/images/blue_pentagon.png'></img>,32,850,test,blue_pentagon,nogo1,-1,5,1,,,,,,,-1,-1,1400,0,ITI,poldrack-single-stim,223,310994,0.0-6.1-18.1,go_nogo_deval,436,,<div></div>,32,1400,test,,,,,,,,,,,,-1,-1,500,0,fixation,poldrack-single-stim,224,311496,0.0-6.1-19.1,go_nogo_deval,436,,<div class = centerbox><div class = fixation>+</div></div>,none,500,test,,,,,,,,,,,,316,32,850,0,stim,poldrack-single-stim,225,312346,0.0-6.1-20.1,go_nogo_deval,436,,<img class = center src='/static/experiments/go_nogo_deval/images/green_circle.png'></img>,32,850,test,green_circle,go2,32,6,1,,,,,,,-1,-1,1400,0,ITI,poldrack-single-stim,226,313748,0.0-6.1-21.1,go_nogo_deval,436,,<div></div>,32,1400,test,,,,,,,,,,,,-1,-1,500,0,fixation,poldrack-single-stim,227,314250,0.0-6.1-22.1,go_nogo_deval,436,,<div class = centerbox><div class = fixation>+</div></div>,none,500,test,,,,,,,,,,,,-1,-1,850,0,stim,poldrack-single-stim,228,315102,0.0-6.1-23.1,go_nogo_deval,436,,<img class = center src='/static/experiments/go_nogo_deval/images/red_rhombus.png'></img>,32,850,test,red_rhombus,nogo2,-1,7,1,,,,,,,-1,-1,1400,0,ITI,poldrack-single-stim,229,316503,0.0-6.1-24.1,go_nogo_deval,436,,<div></div>,32,1400,test,,,,,,,,,,,,-1,-1,500,0,fixation,poldrack-single-stim,230,317004,0.0-6.1-25.1,go_nogo_deval,436,,<div class = centerbox><div class = fixation>+</div></div>,none,500,test,,,,,,,,,,,,353,32,850,0,stim,poldrack-single-stim,231,317856,0.0-6.1-26.1,go_nogo_deval,436,,<img class = center src='/static/experiments/go_nogo_deval/images/purple_triangle.png'></img>,32,850,test,purple_triangle,go1,32,8,1,,,,,,,-1,-1,1400,0,ITI,poldrack-single-stim,232,319258,0.0-6.1-27.1,go_nogo_deval,436,,<div></div>,32,1400,test,,,,,,,,,,,,-1,-1,500,0,fixation,poldrack-single-stim,233,319760,0.0-6.1-28.1,go_nogo_deval,436,,<div class = centerbox><div class = fixation>+</div></div>,none,500,test,,,,,,,,,,,,433,32,850,0,stim,poldrack-single-stim,234,320611,0.0-6.1-29.1,go_nogo_deval,436,,<img class = center src='/static/experiments/go_nogo_deval/images/green_circle.png'></img>,32,850,test,green_circle,go2,32,9,1,,,,,,,-1,-1,1400,0,ITI,poldrack-single-stim,235,322013,0.0-6.1-30.1,go_nogo_deval,436,,<div></div>,32,1400,test,,,,,,,,,,,,-1,-1,500,0,fixation,poldrack-single-stim,236,322515,0.0-6.1-31.1,go_nogo_deval,436,,<div class = centerbox><div class = fixation>+</div></div>,none,500,test,,,,,,,,,,,,446,32,850,0,stim,poldrack-single-stim,237,323367,0.0-6.1-32.1,go_nogo_deval,436,,<img class = center src='/static/experiments/go_nogo_deval/images/purple_triangle.png'></img>,32,850,test,purple_triangle,go1,32,10,1,,,,,,,-1,-1,1400,0,ITI,poldrack-single-stim,238,324768,0.0-6.1-33.1,go_nogo_deval,436,,<div></div>,32,1400,test,,,,,,,,,,,,-1,-1,500,0,fixation,poldrack-single-stim,239,325270,0.0-6.1-34.1,go_nogo_deval,436,,<div class = centerbox><div class = fixation>+</div></div>,none,500,test,,,,,,,,,,,,-1,-1,850,0,stim,poldrack-single-stim,240,326121,0.0-6.1-35.1,go_nogo_deval,436,,<img class = center src='/static/experiments/go_nogo_deval/images/blue_pentagon.png'></img>,32,850,test,blue_pentagon,nogo1,-1,11,1,,,,,,,-1,-1,1400,0,ITI,poldrack-single-stim,241,327523,0.0-6.1-36.1,go_nogo_deval,436,,<div></div>,32,1400,test,,,,,,,,,,,,-1,-1,500,0,fixation,poldrack-single-stim,242,328024,0.0-6.1-37.1,go_nogo_deval,436,,<div class = centerbox><div class = fixation>+</div></div>,none,500,test,,,,,,,,,,,,325,32,850,0,stim,poldrack-single-stim,243,328876,0.0-6.1-38.1,go_nogo_deval,436,,<img class = center src='/static/experiments/go_nogo_deval/images/green_circle.png'></img>,32,850,test,green_circle,go2,32,12,1,,,,,,,-1,-1,1400,0,ITI,poldrack-single-stim,244,330277,0.0-6.1-39.1,go_nogo_deval,436,,<div></div>,32,1400,test,,,,,,,,,,,,-1,-1,500,0,fixation,poldrack-single-stim,245,330779,0.0-6.1-40.1,go_nogo_deval,436,,<div class = centerbox><div class = fixation>+</div></div>,none,500,test,,,,,,,,,,,,462,32,850,0,stim,poldrack-single-stim,246,331631,0.0-6.1-41.1,go_nogo_deval,436,,<img class = center src='/static/experiments/go_nogo_deval/images/green_circle.png'></img>,32,850,test,green_circle,go2,32,13,1,,,,,,,-1,-1,1400,0,ITI,poldrack-single-stim,247,333033,0.0-6.1-42.1,go_nogo_deval,436,,<div></div>,32,1400,test,,,,,,,,,,,,-1,-1,500,0,fixation,poldrack-single-stim,248,333533,0.0-6.1-43.1,go_nogo_deval,436,,<div class = centerbox><div class = fixation>+</div></div>,none,500,test,,,,,,,,,,,,-1,-1,850,0,stim,poldrack-single-stim,249,334385,0.0-6.1-44.1,go_nogo_deval,436,,<img class = center src='/static/experiments/go_nogo_deval/images/blue_pentagon.png'></img>,32,850,test,blue_pentagon,nogo1,-1,14,1,,,,,,,-1,-1,1400,0,ITI,poldrack-single-stim,250,335787,0.0-6.1-45.1,go_nogo_deval,436,,<div></div>,32,1400,test,,,,,,,,,,,,-1,-1,500,0,fixation,poldrack-single-stim,251,336289,0.0-6.1-46.1,go_nogo_deval,436,,<div class = centerbox><div class = fixation>+</div></div>,none,500,test,,,,,,,,,,,,-1,-1,850,0,stim,poldrack-single-stim,252,337141,0.0-6.1-47.1,go_nogo_deval,436,,<img class = center src='/static/experiments/go_nogo_deval/images/red_rhombus.png'></img>,32,850,test,red_rhombus,nogo2,-1,15,1,,,,,,,-1,-1,1400,0,ITI,poldrack-single-stim,253,338543,0.0-6.1-48.1,go_nogo_deval,436,,<div></div>,32,1400,test,,,,,,,,,,,,-1,-1,500,0,fixation,poldrack-single-stim,254,339044,0.0-6.1-49.1,go_nogo_deval,436,,<div class = centerbox><div class = fixation>+</div></div>,none,500,test,,,,,,,,,,,,454,32,850,0,stim,poldrack-single-stim,255,339895,0.0-6.1-50.1,go_nogo_deval,436,,<img class = center src='/static/experiments/go_nogo_deval/images/green_circle.png'></img>,32,850,test,green_circle,go2,32,16,1,,,,,,,-1,-1,1400,0,ITI,poldrack-single-stim,256,341297,0.0-6.1-51.1,go_nogo_deval,436,,<div></div>,32,1400,test,,,,,,,,,,,,-1,-1,500,0,fixation,poldrack-single-stim,257,341798,0.0-6.1-52.1,go_nogo_deval,436,,<div class = centerbox><div class = fixation>+</div></div>,none,500,test,,,,,,,,,,,,468,32,850,0,stim,poldrack-single-stim,258,342650,0.0-6.1-53.1,go_nogo_deval,436,,<img class = center src='/static/experiments/go_nogo_deval/images/purple_triangle.png'></img>,32,850,test,purple_triangle,go1,32,17,1,,,,,,,-1,-1,1400,0,ITI,poldrack-single-stim,259,344052,0.0-6.1-54.1,go_nogo_deval,436,,<div></div>,32,1400,test,,,,,,,,,,,,-1,-1,500,0,fixation,poldrack-single-stim,260,344553,0.0-6.1-55.1,go_nogo_deval,436,,<div class = centerbox><div class = fixation>+</div></div>,none,500,test,,,,,,,,,,,,-1,-1,850,0,stim,poldrack-single-stim,261,345405,0.0-6.1-56.1,go_nogo_deval,436,,<img class = center src='/static/experiments/go_nogo_deval/images/red_rhombus.png'></img>,32,850,test,red_rhombus,nogo2,-1,18,1,,,,,,,-1,-1,1400,0,ITI,poldrack-single-stim,262,346807,0.0-6.1-57.1,go_nogo_deval,436,,<div></div>,32,1400,test,,,,,,,,,,,,-1,-1,500,0,fixation,poldrack-single-stim,263,347308,0.0-6.1-58.1,go_nogo_deval,436,,<div class = centerbox><div class = fixation>+</div></div>,none,500,test,,,,,,,,,,,,515,32,850,0,stim,poldrack-single-stim,264,348160,0.0-6.1-59.1,go_nogo_deval,436,,<img class = center src='/static/experiments/go_nogo_deval/images/green_circle.png'></img>,32,850,test,green_circle,go2,32,19,1,,,,,,,-1,-1,1400,0,ITI,poldrack-single-stim,265,349560,0.0-6.1-60.1,go_nogo_deval,436,,<div></div>,32,1400,test,,,,,,,,,,,,-1,-1,500,0,fixation,poldrack-single-stim,266,350062,0.0-6.1-61.1,go_nogo_deval,436,,<div class = centerbox><div class = fixation>+</div></div>,none,500,test,,,,,,,,,,,,-1,-1,850,0,stim,poldrack-single-stim,267,350913,0.0-6.1-62.1,go_nogo_deval,436,,<img class = center src='/static/experiments/go_nogo_deval/images/red_rhombus.png'></img>,32,850,test,red_rhombus,nogo2,-1,20,1,,,,,,,-1,-1,1400,0,ITI,poldrack-single-stim,268,352315,0.0-6.1-63.1,go_nogo_deval,436,,<div></div>,32,1400,test,,,,,,,,,,,,-1,-1,500,0,fixation,poldrack-single-stim,269,352816,0.0-6.1-64.1,go_nogo_deval,436,,<div class = centerbox><div class = fixation>+</div></div>,none,500,test,,,,,,,,,,,,-1,-1,850,0,stim,poldrack-single-stim,270,353668,0.0-6.1-65.1,go_nogo_deval,436,,<img class = center src='/static/experiments/go_nogo_deval/images/red_rhombus.png'></img>,32,850,test,red_rhombus,nogo2,-1,21,1,,,,,,,-1,-1,1400,0,ITI,poldrack-single-stim,271,355069,0.0-6.1-66.1,go_nogo_deval,436,,<div></div>,32,1400,test,,,,,,,,,,,,-1,-1,500,0,fixation,poldrack-single-stim,272,355571,0.0-6.1-67.1,go_nogo_deval,436,,<div class = centerbox><div class = fixation>+</div></div>,none,500,test,,,,,,,,,,,,409,32,850,0,stim,poldrack-single-stim,273,356422,0.0-6.1-68.1,go_nogo_deval,436,,<img class = center src='/static/experiments/go_nogo_deval/images/green_circle.png'></img>,32,850,test,green_circle,go2,32,22,1,,,,,,,-1,-1,1400,0,ITI,poldrack-single-stim,274,357823,0.0-6.1-69.1,go_nogo_deval,436,,<div></div>,32,1400,test,,,,,,,,,,,,-1,-1,500,0,fixation,poldrack-single-stim,275,358325,0.0-6.1-70.1,go_nogo_deval,436,,<div class = centerbox><div class = fixation>+</div></div>,none,500,test,,,,,,,,,,,,455,32,850,0,stim,poldrack-single-stim,276,359177,0.0-6.1-71.1,go_nogo_deval,436,,<img class = center src='/static/experiments/go_nogo_deval/images/purple_triangle.png'></img>,32,850,test,purple_triangle,go1,32,23,1,,,,,,,-1,-1,1400,0,ITI,poldrack-single-stim,277,360579,0.0-6.1-72.1,go_nogo_deval,436,,<div></div>,32,1400,test,,,,,,,,,,,,-1,-1,500,0,fixation,poldrack-single-stim,278,361080,0.0-6.1-73.1,go_nogo_deval,436,,<div class = centerbox><div class = fixation>+</div></div>,none,500,test,,,,,,,,,,,,367,32,850,0,stim,poldrack-single-stim,279,361932,0.0-6.1-74.1,go_nogo_deval,436,,<img class = center src='/static/experiments/go_nogo_deval/images/red_rhombus.png'></img>,32,850,test,red_rhombus,nogo2,-1,24,1,,,,,,,-1,-1,1400,0,ITI,poldrack-single-stim,280,363334,0.0-6.1-75.1,go_nogo_deval,436,,<div></div>,32,1400,test,,,,,,,,,,,,-1,-1,500,0,fixation,poldrack-single-stim,281,363835,0.0-6.1-76.1,go_nogo_deval,436,,<div class = centerbox><div class = fixation>+</div></div>,none,500,test,,,,,,,,,,,,-1,-1,850,0,stim,poldrack-single-stim,282,364687,0.0-6.1-77.1,go_nogo_deval,436,,<img class = center src='/static/experiments/go_nogo_deval/images/blue_pentagon.png'></img>,32,850,test,blue_pentagon,nogo1,-1,25,1,,,,,,,-1,-1,1400,0,ITI,poldrack-single-stim,283,366089,0.0-6.1-78.1,go_nogo_deval,436,,<div></div>,32,1400,test,,,,,,,,,,,,-1,-1,500,0,fixation,poldrack-single-stim,284,366590,0.0-6.1-79.1,go_nogo_deval,436,,<div class = centerbox><div class = fixation>+</div></div>,none,500,test,,,,,,,,,,,,347,32,850,0,stim,poldrack-single-stim,285,367442,0.0-6.1-80.1,go_nogo_deval,436,,<img class = center src='/static/experiments/go_nogo_deval/images/green_circle.png'></img>,32,850,test,green_circle,go2,32,26,1,,,,,,,-1,-1,1400,0,ITI,poldrack-single-stim,286,368844,0.0-6.1-81.1,go_nogo_deval,436,,<div></div>,32,1400,test,,,,,,,,,,,,-1,-1,500,0,fixation,poldrack-single-stim,287,369346,0.0-6.1-82.1,go_nogo_deval,436,,<div class = centerbox><div class = fixation>+</div></div>,none,500,test,,,,,,,,,,,,370,32,850,0,stim,poldrack-single-stim,288,370197,0.0-6.1-83.1,go_nogo_deval,436,,<img class = center src='/static/experiments/go_nogo_deval/images/green_circle.png'></img>,32,850,test,green_circle,go2,32,27,1,,,,,,,-1,-1,1400,0,ITI,poldrack-single-stim,289,371599,0.0-6.1-84.1,go_nogo_deval,436,,<div></div>,32,1400,test,,,,,,,,,,,,-1,-1,500,0,fixation,poldrack-single-stim,290,372100,0.0-6.1-85.1,go_nogo_deval,436,,<div class = centerbox><div class = fixation>+</div></div>,none,500,test,,,,,,,,,,,,-1,-1,850,0,stim,poldrack-single-stim,291,372952,0.0-6.1-86.1,go_nogo_deval,436,,<img class = center src='/static/experiments/go_nogo_deval/images/blue_pentagon.png'></img>,32,850,test,blue_pentagon,nogo1,-1,28,1,,,,,,,-1,-1,1400,0,ITI,poldrack-single-stim,292,374354,0.0-6.1-87.1,go_nogo_deval,436,,<div></div>,32,1400,test,,,,,,,,,,,,-1,-1,500,0,fixation,poldrack-single-stim,293,374855,0.0-6.1-88.1,go_nogo_deval,436,,<div class = centerbox><div class = fixation>+</div></div>,none,500,test,,,,,,,,,,,,508,32,850,0,stim,poldrack-single-stim,294,375706,0.0-6.1-89.1,go_nogo_deval,436,,<img class = center src='/static/experiments/go_nogo_deval/images/green_circle.png'></img>,32,850,test,green_circle,go2,32,29,1,,,,,,,-1,-1,1400,0,ITI,poldrack-single-stim,295,377108,0.0-6.1-90.1,go_nogo_deval,436,,<div></div>,32,1400,test,,,,,,,,,,,,-1,-1,500,0,fixation,poldrack-single-stim,296,377609,0.0-6.1-91.1,go_nogo_deval,436,,<div class = centerbox><div class = fixation>+</div></div>,none,500,test,,,,,,,,,,,,365,32,850,0,stim,poldrack-single-stim,297,378460,0.0-6.1-92.1,go_nogo_deval,436,,<img class = center src='/static/experiments/go_nogo_deval/images/green_circle.png'></img>,32,850,test,green_circle,go2,32,30,1,,,,,,,-1,-1,1400,0,ITI,poldrack-single-stim,298,379862,0.0-6.1-93.1,go_nogo_deval,436,,<div></div>,32,1400,test,,,,,,,,,,,,-1,-1,500,0,fixation,poldrack-single-stim,299,380364,0.0-6.1-94.1,go_nogo_deval,436,,<div class = centerbox><div class = fixation>+</div></div>,none,500,test,,,,,,,,,,,,422,32,850,0,stim,poldrack-single-stim,300,381216,0.0-6.1-95.1,go_nogo_deval,436,,<img class = center src='/static/experiments/go_nogo_deval/images/purple_triangle.png'></img>,32,850,test,purple_triangle,go1,32,31,1,,,,,,,-1,-1,1400,0,ITI,poldrack-single-stim,301,382618,0.0-6.1-96.1,go_nogo_deval,436,,<div></div>,32,1400,test,,,,,,,,,,,,-1,-1,500,0,fixation,poldrack-single-stim,302,383120,0.0-6.1-97.1,go_nogo_deval,436,,<div class = centerbox><div class = fixation>+</div></div>,none,500,test,,,,,,,,,,,,366,32,850,0,stim,poldrack-single-stim,303,383971,0.0-6.1-98.1,go_nogo_deval,436,,<img class = center src='/static/experiments/go_nogo_deval/images/purple_triangle.png'></img>,32,850,test,purple_triangle,go1,32,32,1,,,,,,,-1,-1,1400,0,ITI,poldrack-single-stim,304,385373,0.0-6.1-99.1,go_nogo_deval,436,,<div></div>,32,1400,test,,,,,,,,,,,,-1,-1,500,0,fixation,poldrack-single-stim,305,385874,0.0-6.1-100.1,go_nogo_deval,436,,<div class = centerbox><div class = fixation>+</div></div>,none,500,test,,,,,,,,,,,,401,32,850,0,stim,poldrack-single-stim,306,386726,0.0-6.1-101.1,go_nogo_deval,436,,<img class = center src='/static/experiments/go_nogo_deval/images/purple_triangle.png'></img>,32,850,test,purple_triangle,go1,32,33,1,,,,,,,-1,-1,1400,0,ITI,poldrack-single-stim,307,388127,0.0-6.1-102.1,go_nogo_deval,436,,<div></div>,32,1400,test,,,,,,,,,,,,-1,-1,500,0,fixation,poldrack-single-stim,308,388629,0.0-6.1-103.1,go_nogo_deval,436,,<div class = centerbox><div class = fixation>+</div></div>,none,500,test,,,,,,,,,,,,370,32,850,0,stim,poldrack-single-stim,309,389480,0.0-6.1-104.1,go_nogo_deval,436,,<img class = center src='/static/experiments/go_nogo_deval/images/purple_triangle.png'></img>,32,850,test,purple_triangle,go1,32,34,1,,,,,,,-1,-1,1400,0,ITI,poldrack-single-stim,310,390881,0.0-6.1-105.1,go_nogo_deval,436,,<div></div>,32,1400,test,,,,,,,,,,,,-1,-1,500,0,fixation,poldrack-single-stim,311,391383,0.0-6.1-106.1,go_nogo_deval,436,,<div class = centerbox><div class = fixation>+</div></div>,none,500,test,,,,,,,,,,,,360,32,850,0,stim,poldrack-single-stim,312,392235,0.0-6.1-107.1,go_nogo_deval,436,,<img class = center src='/static/experiments/go_nogo_deval/images/green_circle.png'></img>,32,850,test,green_circle,go2,32,35,1,,,,,,,-1,-1,1400,0,ITI,poldrack-single-stim,313,393637,0.0-6.1-108.1,go_nogo_deval,436,,<div></div>,32,1400,test,,,,,,,,,,,,-1,-1,500,0,fixation,poldrack-single-stim,314,394139,0.0-6.1-109.1,go_nogo_deval,436,,<div class = centerbox><div class = fixation>+</div></div>,none,500,test,,,,,,,,,,,,316,32,850,0,stim,poldrack-single-stim,315,394991,0.0-6.1-110.1,go_nogo_deval,436,,<img class = center src='/static/experiments/go_nogo_deval/images/purple_triangle.png'></img>,32,850,test,purple_triangle,go1,32,36,1,,,,,,,-1,-1,1400,0,ITI,poldrack-single-stim,316,396392,0.0-6.1-111.1,go_nogo_deval,436,,<div></div>,32,1400,test,,,,,,,,,,,,-1,-1,500,0,fixation,poldrack-single-stim,317,396894,0.0-6.1-112.1,go_nogo_deval,436,,<div class = centerbox><div class = fixation>+</div></div>,none,500,test,,,,,,,,,,,,339,32,850,0,stim,poldrack-single-stim,318,397745,0.0-6.1-113.1,go_nogo_deval,436,,<img class = center src='/static/experiments/go_nogo_deval/images/green_circle.png'></img>,32,850,test,green_circle,go2,32,37,1,,,,,,,-1,-1,1400,0,ITI,poldrack-single-stim,319,399147,0.0-6.1-114.1,go_nogo_deval,436,,<div></div>,32,1400,test,,,,,,,,,,,,-1,-1,500,0,fixation,poldrack-single-stim,320,399649,0.0-6.1-115.1,go_nogo_deval,436,,<div class = centerbox><div class = fixation>+</div></div>,none,500,test,,,,,,,,,,,,-1,-1,850,0,stim,poldrack-single-stim,321,400501,0.0-6.1-116.1,go_nogo_deval,436,,<img class = center src='/static/experiments/go_nogo_deval/images/blue_pentagon.png'></img>,32,850,test,blue_pentagon,nogo1,-1,38,1,,,,,,,-1,-1,1400,0,ITI,poldrack-single-stim,322,401902,0.0-6.1-117.1,go_nogo_deval,436,,<div></div>,32,1400,test,,,,,,,,,,,,-1,-1,500,0,fixation,poldrack-single-stim,323,402403,0.0-6.1-118.1,go_nogo_deval,436,,<div class = centerbox><div class = fixation>+</div></div>,none,500,test,,,,,,,,,,,,421,32,850,0,stim,poldrack-single-stim,324,403255,0.0-6.1-119.1,go_nogo_deval,436,,<img class = center src='/static/experiments/go_nogo_deval/images/green_circle.png'></img>,32,850,test,green_circle,go2,32,39,1,,,,,,,-1,-1,1400,0,ITI,poldrack-single-stim,325,404657,0.0-6.1-120.1,go_nogo_deval,436,,<div></div>,32,1400,test,,,,,,,,,,,,-1,-1,500,0,fixation,poldrack-single-stim,326,405158,0.0-6.1-121.1,go_nogo_deval,436,,<div class = centerbox><div class = fixation>+</div></div>,none,500,test,,,,,,,,,,,,423,32,850,0,stim,poldrack-single-stim,327,406010,0.0-6.1-122.1,go_nogo_deval,436,,<img class = center src='/static/experiments/go_nogo_deval/images/purple_triangle.png'></img>,32,850,test,purple_triangle,go1,32,40,1,,,,,,,-1,-1,1400,0,ITI,poldrack-single-stim,328,407412,0.0-6.1-123.1,go_nogo_deval,436,,<div></div>,32,1400,test,,,,,,,,,,,,-1,-1,500,0,fixation,poldrack-single-stim,329,407914,0.0-6.1-124.1,go_nogo_deval,436,,<div class = centerbox><div class = fixation>+</div></div>,none,500,test,,,,,,,,,,,,322,32,850,0,stim,poldrack-single-stim,330,408765,0.0-6.1-125.1,go_nogo_deval,436,,<img class = center src='/static/experiments/go_nogo_deval/images/green_circle.png'></img>,32,850,test,green_circle,go2,32,41,1,,,,,,,-1,-1,1400,0,ITI,poldrack-single-stim,331,410167,0.0-6.1-126.1,go_nogo_deval,436,,<div></div>,32,1400,test,,,,,,,,,,,,-1,-1,500,0,fixation,poldrack-single-stim,332,410669,0.0-6.1-127.1,go_nogo_deval,436,,<div class = centerbox><div class = fixation>+</div></div>,none,500,test,,,,,,,,,,,,323,32,850,0,stim,poldrack-single-stim,333,411520,0.0-6.1-128.1,go_nogo_deval,436,,<img class = center src='/static/experiments/go_nogo_deval/images/purple_triangle.png'></img>,32,850,test,purple_triangle,go1,32,42,1,,,,,,,-1,-1,1400,0,ITI,poldrack-single-stim,334,412922,0.0-6.1-129.1,go_nogo_deval,436,,<div></div>,32,1400,test,,,,,,,,,,,,-1,-1,500,0,fixation,poldrack-single-stim,335,413424,0.0-6.1-130.1,go_nogo_deval,436,,<div class = centerbox><div class = fixation>+</div></div>,none,500,test,,,,,,,,,,,,-1,-1,850,0,stim,poldrack-single-stim,336,414275,0.0-6.1-131.1,go_nogo_deval,436,,<img class = center src='/static/experiments/go_nogo_deval/images/red_rhombus.png'></img>,32,850,test,red_rhombus,nogo2,-1,43,1,,,,,,,-1,-1,1400,0,ITI,poldrack-single-stim,337,415676,0.0-6.1-132.1,go_nogo_deval,436,,<div></div>,32,1400,test,,,,,,,,,,,,-1,-1,500,0,fixation,poldrack-single-stim,338,416178,0.0-6.1-133.1,go_nogo_deval,436,,<div class = centerbox><div class = fixation>+</div></div>,none,500,test,,,,,,,,,,,,383,32,850,0,stim,poldrack-single-stim,339,417030,0.0-6.1-134.1,go_nogo_deval,436,,<img class = center src='/static/experiments/go_nogo_deval/images/purple_triangle.png'></img>,32,850,test,purple_triangle,go1,32,44,1,,,,,,,-1,-1,1400,0,ITI,poldrack-single-stim,340,418432,0.0-6.1-135.1,go_nogo_deval,436,,<div></div>,32,1400,test,,,,,,,,,,,,-1,-1,500,0,fixation,poldrack-single-stim,341,418933,0.0-6.1-136.1,go_nogo_deval,436,,<div class = centerbox><div class = fixation>+</div></div>,none,500,test,,,,,,,,,,,,-1,-1,850,0,stim,poldrack-single-stim,342,419785,0.0-6.1-137.1,go_nogo_deval,436,,<img class = center src='/static/experiments/go_nogo_deval/images/red_rhombus.png'></img>,32,850,test,red_rhombus,nogo2,-1,45,1,,,,,,,-1,-1,1400,0,ITI,poldrack-single-stim,343,421186,0.0-6.1-138.1,go_nogo_deval,436,,<div></div>,32,1400,test,,,,,,,,,,,,-1,-1,500,0,fixation,poldrack-single-stim,344,421688,0.0-6.1-139.1,go_nogo_deval,436,,<div class = centerbox><div class = fixation>+</div></div>,none,500,test,,,,,,,,,,,,407,32,850,0,stim,poldrack-single-stim,345,422540,0.0-6.1-140.1,go_nogo_deval,436,,<img class = center src='/static/experiments/go_nogo_deval/images/purple_triangle.png'></img>,32,850,test,purple_triangle,go1,32,46,1,,,,,,,-1,-1,1400,0,ITI,poldrack-single-stim,346,423942,0.0-6.1-141.1,go_nogo_deval,436,,<div></div>,32,1400,test,,,,,,,,,,,,-1,-1,500,0,fixation,poldrack-single-stim,347,424443,0.0-6.1-142.1,go_nogo_deval,436,,<div class = centerbox><div class = fixation>+</div></div>,none,500,test,,,,,,,,,,,,-1,-1,850,0,stim,poldrack-single-stim,348,425294,0.0-6.1-143.1,go_nogo_deval,436,,<img class = center src='/static/experiments/go_nogo_deval/images/blue_pentagon.png'></img>,32,850,test,blue_pentagon,nogo1,-1,47,1,,,,,,,-1,-1,1400,0,ITI,poldrack-single-stim,349,426696,0.0-6.1-144.1,go_nogo_deval,436,,<div></div>,32,1400,test,,,,,,,,,,,,16188,13,16188,0,practice-no-stop-feedback,poldrack-single-stim,350,442887,0.0-6.2-0.2,go_nogo_deval,436,,<div class = centerbox><p class = block-text><br>Please take this time to read your feedback and to take a short break! Press enter to continue</p><p class = block-text><strong>Average reaction time:  400 ms. Accuracy: 98%</strong></p></div>,13,16188,,,,,,,,,,,,,-1,-1,500,0,fixation,poldrack-single-stim,351,443388,0.0-6.2-1.2,go_nogo_deval,436,,<div class = centerbox><div class = fixation>+</div></div>,none,500,test,,,,,,,,,,,,499,32,850,0,stim,poldrack-single-stim,352,444240,0.0-6.2-2.2,go_nogo_deval,436,,<img class = center src='/static/experiments/go_nogo_deval/images/green_circle.png'></img>,32,850,test,green_circle,go2,32,0,2,,,,,,,-1,-1,1400,0,ITI,poldrack-single-stim,353,445642,0.0-6.2-3.2,go_nogo_deval,436,,<div></div>,32,1400,test,,,,,,,,,,,,-1,-1,500,0,fixation,poldrack-single-stim,354,446144,0.0-6.2-4.2,go_nogo_deval,436,,<div class = centerbox><div class = fixation>+</div></div>,none,500,test,,,,,,,,,,,,365,32,850,0,stim,poldrack-single-stim,355,446996,0.0-6.2-5.2,go_nogo_deval,436,,<img class = center src='/static/experiments/go_nogo_deval/images/green_circle.png'></img>,32,850,test,green_circle,go2,32,1,2,,,,,,,-1,-1,1400,0,ITI,poldrack-single-stim,356,448398,0.0-6.2-6.2,go_nogo_deval,436,,<div></div>,32,1400,test,,,,,,,,,,,,-1,-1,500,0,fixation,poldrack-single-stim,357,448899,0.0-6.2-7.2,go_nogo_deval,436,,<div class = centerbox><div class = fixation>+</div></div>,none,500,test,,,,,,,,,,,,-1,-1,850,0,stim,poldrack-single-stim,358,449750,0.0-6.2-8.2,go_nogo_deval,436,,<img class = center src='/static/experiments/go_nogo_deval/images/red_rhombus.png'></img>,32,850,test,red_rhombus,nogo2,-1,2,2,,,,,,,-1,-1,1400,0,ITI,poldrack-single-stim,359,451152,0.0-6.2-9.2,go_nogo_deval,436,,<div></div>,32,1400,test,,,,,,,,,,,,-1,-1,500,0,fixation,poldrack-single-stim,360,451654,0.0-6.2-10.2,go_nogo_deval,436,,<div class = centerbox><div class = fixation>+</div></div>,none,500,test,,,,,,,,,,,,323,32,850,0,stim,poldrack-single-stim,361,452506,0.0-6.2-11.2,go_nogo_deval,436,,<img class = center src='/static/experiments/go_nogo_deval/images/red_rhombus.png'></img>,32,850,test,red_rhombus,nogo2,-1,3,2,,,,,,,-1,-1,1400,0,ITI,poldrack-single-stim,362,453906,0.0-6.2-12.2,go_nogo_deval,436,,<div></div>,32,1400,test,,,,,,,,,,,,-1,-1,500,0,fixation,poldrack-single-stim,363,454408,0.0-6.2-13.2,go_nogo_deval,436,,<div class = centerbox><div class = fixation>+</div></div>,none,500,test,,,,,,,,,,,,427,32,850,0,stim,poldrack-single-stim,364,455260,0.0-6.2-14.2,go_nogo_deval,436,,<img class = center src='/static/experiments/go_nogo_deval/images/purple_triangle.png'></img>,32,850,test,purple_triangle,go1,32,4,2,,,,,,,-1,-1,1400,0,ITI,poldrack-single-stim,365,456662,0.0-6.2-15.2,go_nogo_deval,436,,<div></div>,32,1400,test,,,,,,,,,,,,-1,-1,500,0,fixation,poldrack-single-stim,366,457163,0.0-6.2-16.2,go_nogo_deval,436,,<div class = centerbox><div class = fixation>+</div></div>,none,500,test,,,,,,,,,,,,337,32,850,0,stim,poldrack-single-stim,367,458014,0.0-6.2-17.2,go_nogo_deval,436,,<img class = center src='/static/experiments/go_nogo_deval/images/green_circle.png'></img>,32,850,test,green_circle,go2,32,5,2,,,,,,,-1,-1,1400,0,ITI,poldrack-single-stim,368,459416,0.0-6.2-18.2,go_nogo_deval,436,,<div></div>,32,1400,test,,,,,,,,,,,,-1,-1,500,0,fixation,poldrack-single-stim,369,459918,0.0-6.2-19.2,go_nogo_deval,436,,<div class = centerbox><div class = fixation>+</div></div>,none,500,test,,,,,,,,,,,,372,32,850,0,stim,poldrack-single-stim,370,460770,0.0-6.2-20.2,go_nogo_deval,436,,<img class = center src='/static/experiments/go_nogo_deval/images/purple_triangle.png'></img>,32,850,test,purple_triangle,go1,32,6,2,,,,,,,-1,-1,1400,0,ITI,poldrack-single-stim,371,462172,0.0-6.2-21.2,go_nogo_deval,436,,<div></div>,32,1400,test,,,,,,,,,,,,-1,-1,500,0,fixation,poldrack-single-stim,372,462674,0.0-6.2-22.2,go_nogo_deval,436,,<div class = centerbox><div class = fixation>+</div></div>,none,500,test,,,,,,,,,,,,339,32,850,0,stim,poldrack-single-stim,373,463525,0.0-6.2-23.2,go_nogo_deval,436,,<img class = center src='/static/experiments/go_nogo_deval/images/green_circle.png'></img>,32,850,test,green_circle,go2,32,7,2,,,,,,,-1,-1,1400,0,ITI,poldrack-single-stim,374,464927,0.0-6.2-24.2,go_nogo_deval,436,,<div></div>,32,1400,test,,,,,,,,,,,,-1,-1,500,0,fixation,poldrack-single-stim,375,465428,0.0-6.2-25.2,go_nogo_deval,436,,<div class = centerbox><div class = fixation>+</div></div>,none,500,test,,,,,,,,,,,,-1,-1,850,0,stim,poldrack-single-stim,376,466280,0.0-6.2-26.2,go_nogo_deval,436,,<img class = center src='/static/experiments/go_nogo_deval/images/blue_pentagon.png'></img>,32,850,test,blue_pentagon,nogo1,-1,8,2,,,,,,,-1,-1,1400,0,ITI,poldrack-single-stim,377,467681,0.0-6.2-27.2,go_nogo_deval,436,,<div></div>,32,1400,test,,,,,,,,,,,,-1,-1,500,0,fixation,poldrack-single-stim,378,468182,0.0-6.2-28.2,go_nogo_deval,436,,<div class = centerbox><div class = fixation>+</div></div>,none,500,test,,,,,,,,,,,,377,32,850,0,stim,poldrack-single-stim,379,469033,0.0-6.2-29.2,go_nogo_deval,436,,<img class = center src='/static/experiments/go_nogo_deval/images/green_circle.png'></img>,32,850,test,green_circle,go2,32,9,2,,,,,,,-1,-1,1400,0,ITI,poldrack-single-stim,380,470435,0.0-6.2-30.2,go_nogo_deval,436,,<div></div>,32,1400,test,,,,,,,,,,,,-1,-1,500,0,fixation,poldrack-single-stim,381,470937,0.0-6.2-31.2,go_nogo_deval,436,,<div class = centerbox><div class = fixation>+</div></div>,none,500,test,,,,,,,,,,,,367,32,850,0,stim,poldrack-single-stim,382,471789,0.0-6.2-32.2,go_nogo_deval,436,,<img class = center src='/static/experiments/go_nogo_deval/images/green_circle.png'></img>,32,850,test,green_circle,go2,32,10,2,,,,,,,-1,-1,1400,0,ITI,poldrack-single-stim,383,473190,0.0-6.2-33.2,go_nogo_deval,436,,<div></div>,32,1400,test,,,,,,,,,,,,-1,-1,500,0,fixation,poldrack-single-stim,384,473691,0.0-6.2-34.2,go_nogo_deval,436,,<div class = centerbox><div class = fixation>+</div></div>,none,500,test,,,,,,,,,,,,-1,-1,850,0,stim,poldrack-single-stim,385,474542,0.0-6.2-35.2,go_nogo_deval,436,,<img class = center src='/static/experiments/go_nogo_deval/images/blue_pentagon.png'></img>,32,850,test,blue_pentagon,nogo1,-1,11,2,,,,,,,-1,-1,1400,0,ITI,poldrack-single-stim,386,475943,0.0-6.2-36.2,go_nogo_deval,436,,<div></div>,32,1400,test,,,,,,,,,,,,-1,-1,500,0,fixation,poldrack-single-stim,387,476445,0.0-6.2-37.2,go_nogo_deval,436,,<div class = centerbox><div class = fixation>+</div></div>,none,500,test,,,,,,,,,,,,348,32,850,0,stim,poldrack-single-stim,388,477297,0.0-6.2-38.2,go_nogo_deval,436,,<img class = center src='/static/experiments/go_nogo_deval/images/green_circle.png'></img>,32,850,test,green_circle,go2,32,12,2,,,,,,,-1,-1,1400,0,ITI,poldrack-single-stim,389,478698,0.0-6.2-39.2,go_nogo_deval,436,,<div></div>,32,1400,test,,,,,,,,,,,,-1,-1,500,0,fixation,poldrack-single-stim,390,479199,0.0-6.2-40.2,go_nogo_deval,436,,<div class = centerbox><div class = fixation>+</div></div>,none,500,test,,,,,,,,,,,,453,32,850,0,stim,poldrack-single-stim,391,480051,0.0-6.2-41.2,go_nogo_deval,436,,<img class = center src='/static/experiments/go_nogo_deval/images/purple_triangle.png'></img>,32,850,test,purple_triangle,go1,32,13,2,,,,,,,-1,-1,1400,0,ITI,poldrack-single-stim,392,481452,0.0-6.2-42.2,go_nogo_deval,436,,<div></div>,32,1400,test,,,,,,,,,,,,-1,-1,500,0,fixation,poldrack-single-stim,393,481955,0.0-6.2-43.2,go_nogo_deval,436,,<div class = centerbox><div class = fixation>+</div></div>,none,500,test,,,,,,,,,,,,374,32,850,0,stim,poldrack-single-stim,394,482807,0.0-6.2-44.2,go_nogo_deval,436,,<img class = center src='/static/experiments/go_nogo_deval/images/green_circle.png'></img>,32,850,test,green_circle,go2,32,14,2,,,,,,,-1,-1,1400,0,ITI,poldrack-single-stim,395,484210,0.0-6.2-45.2,go_nogo_deval,436,,<div></div>,32,1400,test,,,,,,,,,,,,-1,-1,500,0,fixation,poldrack-single-stim,396,484711,0.0-6.2-46.2,go_nogo_deval,436,,<div class = centerbox><div class = fixation>+</div></div>,none,500,test,,,,,,,,,,,,-1,-1,850,0,stim,poldrack-single-stim,397,485563,0.0-6.2-47.2,go_nogo_deval,436,,<img class = center src='/static/experiments/go_nogo_deval/images/red_rhombus.png'></img>,32,850,test,red_rhombus,nogo2,-1,15,2,,,,,,,-1,-1,1400,0,ITI,poldrack-single-stim,398,486964,0.0-6.2-48.2,go_nogo_deval,436,,<div></div>,32,1400,test,,,,,,,,,,,,-1,-1,500,0,fixation,poldrack-single-stim,399,487466,0.0-6.2-49.2,go_nogo_deval,436,,<div class = centerbox><div class = fixation>+</div></div>,none,500,test,,,,,,,,,,,,432,32,850,0,stim,poldrack-single-stim,400,488318,0.0-6.2-50.2,go_nogo_deval,436,,<img class = center src='/static/experiments/go_nogo_deval/images/purple_triangle.png'></img>,32,850,test,purple_triangle,go1,32,16,2,,,,,,,-1,-1,1400,0,ITI,poldrack-single-stim,401,489720,0.0-6.2-51.2,go_nogo_deval,436,,<div></div>,32,1400,test,,,,,,,,,,,,-1,-1,500,0,fixation,poldrack-single-stim,402,490221,0.0-6.2-52.2,go_nogo_deval,436,,<div class = centerbox><div class = fixation>+</div></div>,none,500,test,,,,,,,,,,,,412,32,850,0,stim,poldrack-single-stim,403,491073,0.0-6.2-53.2,go_nogo_deval,436,,<img class = center src='/static/experiments/go_nogo_deval/images/green_circle.png'></img>,32,850,test,green_circle,go2,32,17,2,,,,,,,-1,-1,1400,0,ITI,poldrack-single-stim,404,492475,0.0-6.2-54.2,go_nogo_deval,436,,<div></div>,32,1400,test,,,,,,,,,,,,-1,-1,500,0,fixation,poldrack-single-stim,405,492976,0.0-6.2-55.2,go_nogo_deval,436,,<div class = centerbox><div class = fixation>+</div></div>,none,500,test,,,,,,,,,,,,344,32,850,0,stim,poldrack-single-stim,406,493827,0.0-6.2-56.2,go_nogo_deval,436,,<img class = center src='/static/experiments/go_nogo_deval/images/green_circle.png'></img>,32,850,test,green_circle,go2,32,18,2,,,,,,,-1,-1,1400,0,ITI,poldrack-single-stim,407,495229,0.0-6.2-57.2,go_nogo_deval,436,,<div></div>,32,1400,test,,,,,,,,,,,,-1,-1,500,0,fixation,poldrack-single-stim,408,495731,0.0-6.2-58.2,go_nogo_deval,436,,<div class = centerbox><div class = fixation>+</div></div>,none,500,test,,,,,,,,,,,,357,32,850,0,stim,poldrack-single-stim,409,496583,0.0-6.2-59.2,go_nogo_deval,436,,<img class = center src='/static/experiments/go_nogo_deval/images/green_circle.png'></img>,32,850,test,green_circle,go2,32,19,2,,,,,,,-1,-1,1400,0,ITI,poldrack-single-stim,410,497984,0.0-6.2-60.2,go_nogo_deval,436,,<div></div>,32,1400,test,,,,,,,,,,,,-1,-1,500,0,fixation,poldrack-single-stim,411,498486,0.0-6.2-61.2,go_nogo_deval,436,,<div class = centerbox><div class = fixation>+</div></div>,none,500,test,,,,,,,,,,,,336,32,850,0,stim,poldrack-single-stim,412,499338,0.0-6.2-62.2,go_nogo_deval,436,,<img class = center src='/static/experiments/go_nogo_deval/images/green_circle.png'></img>,32,850,test,green_circle,go2,32,20,2,,,,,,,-1,-1,1400,0,ITI,poldrack-single-stim,413,500739,0.0-6.2-63.2,go_nogo_deval,436,,<div></div>,32,1400,test,,,,,,,,,,,,-1,-1,500,0,fixation,poldrack-single-stim,414,501241,0.0-6.2-64.2,go_nogo_deval,436,,<div class = centerbox><div class = fixation>+</div></div>,none,500,test,,,,,,,,,,,,461,32,850,0,stim,poldrack-single-stim,415,502092,0.0-6.2-65.2,go_nogo_deval,436,,<img class = center src='/static/experiments/go_nogo_deval/images/purple_triangle.png'></img>,32,850,test,purple_triangle,go1,32,21,2,,,,,,,-1,-1,1400,0,ITI,poldrack-single-stim,416,503494,0.0-6.2-66.2,go_nogo_deval,436,,<div></div>,32,1400,test,,,,,,,,,,,,-1,-1,500,0,fixation,poldrack-single-stim,417,503995,0.0-6.2-67.2,go_nogo_deval,436,,<div class = centerbox><div class = fixation>+</div></div>,none,500,test,,,,,,,,,,,,384,32,850,0,stim,poldrack-single-stim,418,504847,0.0-6.2-68.2,go_nogo_deval,436,,<img class = center src='/static/experiments/go_nogo_deval/images/green_circle.png'></img>,32,850,test,green_circle,go2,32,22,2,,,,,,,-1,-1,1400,0,ITI,poldrack-single-stim,419,506249,0.0-6.2-69.2,go_nogo_deval,436,,<div></div>,32,1400,test,,,,,,,,,,,,-1,-1,500,0,fixation,poldrack-single-stim,420,506751,0.0-6.2-70.2,go_nogo_deval,436,,<div class = centerbox><div class = fixation>+</div></div>,none,500,test,,,,,,,,,,,,362,32,850,0,stim,poldrack-single-stim,421,507603,0.0-6.2-71.2,go_nogo_deval,436,,<img class = center src='/static/experiments/go_nogo_deval/images/purple_triangle.png'></img>,32,850,test,purple_triangle,go1,32,23,2,,,,,,,-1,-1,1400,0,ITI,poldrack-single-stim,422,509004,0.0-6.2-72.2,go_nogo_deval,436,,<div></div>,32,1400,test,,,,,,,,,,,,-1,-1,500,0,fixation,poldrack-single-stim,423,509506,0.0-6.2-73.2,go_nogo_deval,436,,<div class = centerbox><div class = fixation>+</div></div>,none,500,test,,,,,,,,,,,,397,32,850,0,stim,poldrack-single-stim,424,510357,0.0-6.2-74.2,go_nogo_deval,436,,<img class = center src='/static/experiments/go_nogo_deval/images/green_circle.png'></img>,32,850,test,green_circle,go2,32,24,2,,,,,,,-1,-1,1400,0,ITI,poldrack-single-stim,425,511759,0.0-6.2-75.2,go_nogo_deval,436,,<div></div>,32,1400,test,,,,,,,,,,,,-1,-1,500,0,fixation,poldrack-single-stim,426,512260,0.0-6.2-76.2,go_nogo_deval,436,,<div class = centerbox><div class = fixation>+</div></div>,none,500,test,,,,,,,,,,,,-1,-1,850,0,stim,poldrack-single-stim,427,513112,0.0-6.2-77.2,go_nogo_deval,436,,<img class = center src='/static/experiments/go_nogo_deval/images/red_rhombus.png'></img>,32,850,test,red_rhombus,nogo2,-1,25,2,,,,,,,-1,-1,1400,0,ITI,poldrack-single-stim,428,514513,0.0-6.2-78.2,go_nogo_deval,436,,<div></div>,32,1400,test,,,,,,,,,,,,-1,-1,500,0,fixation,poldrack-single-stim,429,515015,0.0-6.2-79.2,go_nogo_deval,436,,<div class = centerbox><div class = fixation>+</div></div>,none,500,test,,,,,,,,,,,,423,32,850,0,stim,poldrack-single-stim,430,515867,0.0-6.2-80.2,go_nogo_deval,436,,<img class = center src='/static/experiments/go_nogo_deval/images/purple_triangle.png'></img>,32,850,test,purple_triangle,go1,32,26,2,,,,,,,-1,-1,1400,0,ITI,poldrack-single-stim,431,517269,0.0-6.2-81.2,go_nogo_deval,436,,<div></div>,32,1400,test,,,,,,,,,,,,-1,-1,500,0,fixation,poldrack-single-stim,432,517770,0.0-6.2-82.2,go_nogo_deval,436,,<div class = centerbox><div class = fixation>+</div></div>,none,500,test,,,,,,,,,,,,-1,-1,850,0,stim,poldrack-single-stim,433,518622,0.0-6.2-83.2,go_nogo_deval,436,,<img class = center src='/static/experiments/go_nogo_deval/images/blue_pentagon.png'></img>,32,850,test,blue_pentagon,nogo1,-1,27,2,,,,,,,-1,-1,1400,0,ITI,poldrack-single-stim,434,520023,0.0-6.2-84.2,go_nogo_deval,436,,<div></div>,32,1400,test,,,,,,,,,,,,-1,-1,500,0,fixation,poldrack-single-stim,435,520525,0.0-6.2-85.2,go_nogo_deval,436,,<div class = centerbox><div class = fixation>+</div></div>,none,500,test,,,,,,,,,,,,-1,-1,850,0,stim,poldrack-single-stim,436,521376,0.0-6.2-86.2,go_nogo_deval,436,,<img class = center src='/static/experiments/go_nogo_deval/images/red_rhombus.png'></img>,32,850,test,red_rhombus,nogo2,-1,28,2,,,,,,,-1,-1,1400,0,ITI,poldrack-single-stim,437,522778,0.0-6.2-87.2,go_nogo_deval,436,,<div></div>,32,1400,test,,,,,,,,,,,,-1,-1,500,0,fixation,poldrack-single-stim,438,523280,0.0-6.2-88.2,go_nogo_deval,436,,<div class = centerbox><div class = fixation>+</div></div>,none,500,test,,,,,,,,,,,,427,32,850,0,stim,poldrack-single-stim,439,524132,0.0-6.2-89.2,go_nogo_deval,436,,<img class = center src='/static/experiments/go_nogo_deval/images/purple_triangle.png'></img>,32,850,test,purple_triangle,go1,32,29,2,,,,,,,-1,-1,1400,0,ITI,poldrack-single-stim,440,525534,0.0-6.2-90.2,go_nogo_deval,436,,<div></div>,32,1400,test,,,,,,,,,,,,-1,-1,500,0,fixation,poldrack-single-stim,441,526036,0.0-6.2-91.2,go_nogo_deval,436,,<div class = centerbox><div class = fixation>+</div></div>,none,500,test,,,,,,,,,,,,-1,-1,850,0,stim,poldrack-single-stim,442,526888,0.0-6.2-92.2,go_nogo_deval,436,,<img class = center src='/static/experiments/go_nogo_deval/images/blue_pentagon.png'></img>,32,850,test,blue_pentagon,nogo1,-1,30,2,,,,,,,-1,-1,1400,0,ITI,poldrack-single-stim,443,528289,0.0-6.2-93.2,go_nogo_deval,436,,<div></div>,32,1400,test,,,,,,,,,,,,-1,-1,500,0,fixation,poldrack-single-stim,444,528791,0.0-6.2-94.2,go_nogo_deval,436,,<div class = centerbox><div class = fixation>+</div></div>,none,500,test,,,,,,,,,,,,384,32,850,0,stim,poldrack-single-stim,445,529643,0.0-6.2-95.2,go_nogo_deval,436,,<img class = center src='/static/experiments/go_nogo_deval/images/purple_triangle.png'></img>,32,850,test,purple_triangle,go1,32,31,2,,,,,,,-1,-1,1400,0,ITI,poldrack-single-stim,446,531045,0.0-6.2-96.2,go_nogo_deval,436,,<div></div>,32,1400,test,,,,,,,,,,,,-1,-1,500,0,fixation,poldrack-single-stim,447,531546,0.0-6.2-97.2,go_nogo_deval,436,,<div class = centerbox><div class = fixation>+</div></div>,none,500,test,,,,,,,,,,,,464,32,850,0,stim,poldrack-single-stim,448,532398,0.0-6.2-98.2,go_nogo_deval,436,,<img class = center src='/static/experiments/go_nogo_deval/images/purple_triangle.png'></img>,32,850,test,purple_triangle,go1,32,32,2,,,,,,,-1,-1,1400,0,ITI,poldrack-single-stim,449,533799,0.0-6.2-99.2,go_nogo_deval,436,,<div></div>,32,1400,test,,,,,,,,,,,,-1,-1,500,0,fixation,poldrack-single-stim,450,534301,0.0-6.2-100.2,go_nogo_deval,436,,<div class = centerbox><div class = fixation>+</div></div>,none,500,test,,,,,,,,,,,,-1,-1,850,0,stim,poldrack-single-stim,451,535153,0.0-6.2-101.2,go_nogo_deval,436,,<img class = center src='/static/experiments/go_nogo_deval/images/red_rhombus.png'></img>,32,850,test,red_rhombus,nogo2,-1,33,2,,,,,,,-1,-1,1400,0,ITI,poldrack-single-stim,452,536554,0.0-6.2-102.2,go_nogo_deval,436,,<div></div>,32,1400,test,,,,,,,,,,,,-1,-1,500,0,fixation,poldrack-single-stim,453,537056,0.0-6.2-103.2,go_nogo_deval,436,,<div class = centerbox><div class = fixation>+</div></div>,none,500,test,,,,,,,,,,,,433,32,850,0,stim,poldrack-single-stim,454,537908,0.0-6.2-104.2,go_nogo_deval,436,,<img class = center src='/static/experiments/go_nogo_deval/images/purple_triangle.png'></img>,32,850,test,purple_triangle,go1,32,34,2,,,,,,,-1,-1,1400,0,ITI,poldrack-single-stim,455,539309,0.0-6.2-105.2,go_nogo_deval,436,,<div></div>,32,1400,test,,,,,,,,,,,,-1,-1,500,0,fixation,poldrack-single-stim,456,539810,0.0-6.2-106.2,go_nogo_deval,436,,<div class = centerbox><div class = fixation>+</div></div>,none,500,test,,,,,,,,,,,,-1,-1,850,0,stim,poldrack-single-stim,457,540662,0.0-6.2-107.2,go_nogo_deval,436,,<img class = center src='/static/experiments/go_nogo_deval/images/blue_pentagon.png'></img>,32,850,test,blue_pentagon,nogo1,-1,35,2,,,,,,,-1,-1,1400,0,ITI,poldrack-single-stim,458,542064,0.0-6.2-108.2,go_nogo_deval,436,,<div></div>,32,1400,test,,,,,,,,,,,,-1,-1,500,0,fixation,poldrack-single-stim,459,542566,0.0-6.2-109.2,go_nogo_deval,436,,<div class = centerbox><div class = fixation>+</div></div>,none,500,test,,,,,,,,,,,,-1,-1,850,0,stim,poldrack-single-stim,460,543418,0.0-6.2-110.2,go_nogo_deval,436,,<img class = center src='/static/experiments/go_nogo_deval/images/red_rhombus.png'></img>,32,850,test,red_rhombus,nogo2,-1,36,2,,,,,,,-1,-1,1400,0,ITI,poldrack-single-stim,461,544820,0.0-6.2-111.2,go_nogo_deval,436,,<div></div>,32,1400,test,,,,,,,,,,,,-1,-1,500,0,fixation,poldrack-single-stim,462,545321,0.0-6.2-112.2,go_nogo_deval,436,,<div class = centerbox><div class = fixation>+</div></div>,none,500,test,,,,,,,,,,,,379,32,850,0,stim,poldrack-single-stim,463,546172,0.0-6.2-113.2,go_nogo_deval,436,,<img class = center src='/static/experiments/go_nogo_deval/images/green_circle.png'></img>,32,850,test,green_circle,go2,32,37,2,,,,,,,-1,-1,1400,0,ITI,poldrack-single-stim,464,547574,0.0-6.2-114.2,go_nogo_deval,436,,<div></div>,32,1400,test,,,,,,,,,,,,-1,-1,500,0,fixation,poldrack-single-stim,465,548076,0.0-6.2-115.2,go_nogo_deval,436,,<div class = centerbox><div class = fixation>+</div></div>,none,500,test,,,,,,,,,,,,370,32,850,0,stim,poldrack-single-stim,466,548928,0.0-6.2-116.2,go_nogo_deval,436,,<img class = center src='/static/experiments/go_nogo_deval/images/purple_triangle.png'></img>,32,850,test,purple_triangle,go1,32,38,2,,,,,,,-1,-1,1400,0,ITI,poldrack-single-stim,467,550328,0.0-6.2-117.2,go_nogo_deval,436,,<div></div>,32,1400,test,,,,,,,,,,,,-1,-1,500,0,fixation,poldrack-single-stim,468,550830,0.0-6.2-118.2,go_nogo_deval,436,,<div class = centerbox><div class = fixation>+</div></div>,none,500,test,,,,,,,,,,,,327,32,850,0,stim,poldrack-single-stim,469,551681,0.0-6.2-119.2,go_nogo_deval,436,,<img class = center src='/static/experiments/go_nogo_deval/images/purple_triangle.png'></img>,32,850,test,purple_triangle,go1,32,39,2,,,,,,,-1,-1,1400,0,ITI,poldrack-single-stim,470,553083,0.0-6.2-120.2,go_nogo_deval,436,,<div></div>,32,1400,test,,,,,,,,,,,,-1,-1,500,0,fixation,poldrack-single-stim,471,553585,0.0-6.2-121.2,go_nogo_deval,436,,<div class = centerbox><div class = fixation>+</div></div>,none,500,test,,,,,,,,,,,,385,32,850,0,stim,poldrack-single-stim,472,554437,0.0-6.2-122.2,go_nogo_deval,436,,<img class = center src='/static/experiments/go_nogo_deval/images/purple_triangle.png'></img>,32,850,test,purple_triangle,go1,32,40,2,,,,,,,-1,-1,1400,0,ITI,poldrack-single-stim,473,555837,0.0-6.2-123.2,go_nogo_deval,436,,<div></div>,32,1400,test,,,,,,,,,,,,-1,-1,500,0,fixation,poldrack-single-stim,474,556338,0.0-6.2-124.2,go_nogo_deval,436,,<div class = centerbox><div class = fixation>+</div></div>,none,500,test,,,,,,,,,,,,410,32,850,0,stim,poldrack-single-stim,475,557190,0.0-6.2-125.2,go_nogo_deval,436,,<img class = center src='/static/experiments/go_nogo_deval/images/green_circle.png'></img>,32,850,test,green_circle,go2,32,41,2,,,,,,,-1,-1,1400,0,ITI,poldrack-single-stim,476,558592,0.0-6.2-126.2,go_nogo_deval,436,,<div></div>,32,1400,test,,,,,,,,,,,,-1,-1,500,0,fixation,poldrack-single-stim,477,559094,0.0-6.2-127.2,go_nogo_deval,436,,<div class = centerbox><div class = fixation>+</div></div>,none,500,test,,,,,,,,,,,,-1,-1,850,0,stim,poldrack-single-stim,478,559945,0.0-6.2-128.2,go_nogo_deval,436,,<img class = center src='/static/experiments/go_nogo_deval/images/red_rhombus.png'></img>,32,850,test,red_rhombus,nogo2,-1,42,2,,,,,,,-1,-1,1400,0,ITI,poldrack-single-stim,479,561347,0.0-6.2-129.2,go_nogo_deval,436,,<div></div>,32,1400,test,,,,,,,,,,,,-1,-1,500,0,fixation,poldrack-single-stim,480,561849,0.0-6.2-130.2,go_nogo_deval,436,,<div class = centerbox><div class = fixation>+</div></div>,none,500,test,,,,,,,,,,,,-1,-1,850,0,stim,poldrack-single-stim,481,562701,0.0-6.2-131.2,go_nogo_deval,436,,<img class = center src='/static/experiments/go_nogo_deval/images/blue_pentagon.png'></img>,32,850,test,blue_pentagon,nogo1,-1,43,2,,,,,,,-1,-1,1400,0,ITI,poldrack-single-stim,482,564103,0.0-6.2-132.2,go_nogo_deval,436,,<div></div>,32,1400,test,,,,,,,,,,,,-1,-1,500,0,fixation,poldrack-single-stim,483,564604,0.0-6.2-133.2,go_nogo_deval,436,,<div class = centerbox><div class = fixation>+</div></div>,none,500,test,,,,,,,,,,,,436,32,850,0,stim,poldrack-single-stim,484,565456,0.0-6.2-134.2,go_nogo_deval,436,,<img class = center src='/static/experiments/go_nogo_deval/images/purple_triangle.png'></img>,32,850,test,purple_triangle,go1,32,44,2,,,,,,,-1,-1,1400,0,ITI,poldrack-single-stim,485,566857,0.0-6.2-135.2,go_nogo_deval,436,,<div></div>,32,1400,test,,,,,,,,,,,,-1,-1,500,0,fixation,poldrack-single-stim,486,567359,0.0-6.2-136.2,go_nogo_deval,436,,<div class = centerbox><div class = fixation>+</div></div>,none,500,test,,,,,,,,,,,,325,32,850,0,stim,poldrack-single-stim,487,568211,0.0-6.2-137.2,go_nogo_deval,436,,<img class = center src='/static/experiments/go_nogo_deval/images/purple_triangle.png'></img>,32,850,test,purple_triangle,go1,32,45,2,,,,,,,-1,-1,1400,0,ITI,poldrack-single-stim,488,569612,0.0-6.2-138.2,go_nogo_deval,436,,<div></div>,32,1400,test,,,,,,,,,,,,-1,-1,500,0,fixation,poldrack-single-stim,489,570114,0.0-6.2-139.2,go_nogo_deval,436,,<div class = centerbox><div class = fixation>+</div></div>,none,500,test,,,,,,,,,,,,-1,-1,850,0,stim,poldrack-single-stim,490,570965,0.0-6.2-140.2,go_nogo_deval,436,,<img class = center src='/static/experiments/go_nogo_deval/images/blue_pentagon.png'></img>,32,850,test,blue_pentagon,nogo1,-1,46,2,,,,,,,-1,-1,1400,0,ITI,poldrack-single-stim,491,572365,0.0-6.2-141.2,go_nogo_deval,436,,<div></div>,32,1400,test,,,,,,,,,,,,-1,-1,500,0,fixation,poldrack-single-stim,492,572867,0.0-6.2-142.2,go_nogo_deval,436,,<div class = centerbox><div class = fixation>+</div></div>,none,500,test,,,,,,,,,,,,-1,-1,850,0,stim,poldrack-single-stim,493,573719,0.0-6.2-143.2,go_nogo_deval,436,,<img class = center src='/static/experiments/go_nogo_deval/images/blue_pentagon.png'></img>,32,850,test,blue_pentagon,nogo1,-1,47,2,,,,,,,-1,-1,1400,0,ITI,poldrack-single-stim,494,575121,0.0-6.2-144.2,go_nogo_deval,436,,<div></div>,32,1400,test,,,,,,,,,,,,4293,13,4293,0,practice-no-stop-feedback,poldrack-single-stim,495,579418,0.0-6.3-0.3,go_nogo_deval,436,,<div class = centerbox><p class = block-text><br>Please take this time to read your feedback and to take a short break! Press enter to continue</p><p class = block-text><strong>Average reaction time:  389 ms. Accuracy: 98%</strong></p></div>,13,4293,,,,,,,,,,,,,-1,-1,500,0,fixation,poldrack-single-stim,496,579920,0.0-6.3-1.3,go_nogo_deval,436,,<div class = centerbox><div class = fixation>+</div></div>,none,500,test,,,,,,,,,,,,419,32,850,0,stim,poldrack-single-stim,497,580771,0.0-6.3-2.3,go_nogo_deval,436,,<img class = center src='/static/experiments/go_nogo_deval/images/purple_triangle.png'></img>,32,850,test,purple_triangle,go1,32,0,3,,,,,,,-1,-1,1400,0,ITI,poldrack-single-stim,498,582173,0.0-6.3-3.3,go_nogo_deval,436,,<div></div>,32,1400,test,,,,,,,,,,,,-1,-1,500,0,fixation,poldrack-single-stim,499,582675,0.0-6.3-4.3,go_nogo_deval,436,,<div class = centerbox><div class = fixation>+</div></div>,none,500,test,,,,,,,,,,,,320,32,850,0,stim,poldrack-single-stim,500,583526,0.0-6.3-5.3,go_nogo_deval,436,,<img class = center src='/static/experiments/go_nogo_deval/images/purple_triangle.png'></img>,32,850,test,purple_triangle,go1,32,1,3,,,,,,,-1,-1,1400,0,ITI,poldrack-single-stim,501,584928,0.0-6.3-6.3,go_nogo_deval,436,,<div></div>,32,1400,test,,,,,,,,,,,,-1,-1,500,0,fixation,poldrack-single-stim,502,585430,0.0-6.3-7.3,go_nogo_deval,436,,<div class = centerbox><div class = fixation>+</div></div>,none,500,test,,,,,,,,,,,,377,32,850,0,stim,poldrack-single-stim,503,586282,0.0-6.3-8.3,go_nogo_deval,436,,<img class = center src='/static/experiments/go_nogo_deval/images/purple_triangle.png'></img>,32,850,test,purple_triangle,go1,32,2,3,,,,,,,-1,-1,1400,0,ITI,poldrack-single-stim,504,587683,0.0-6.3-9.3,go_nogo_deval,436,,<div></div>,32,1400,test,,,,,,,,,,,,-1,-1,500,0,fixation,poldrack-single-stim,505,588185,0.0-6.3-10.3,go_nogo_deval,436,,<div class = centerbox><div class = fixation>+</div></div>,none,500,test,,,,,,,,,,,,345,32,850,0,stim,poldrack-single-stim,506,589037,0.0-6.3-11.3,go_nogo_deval,436,,<img class = center src='/static/experiments/go_nogo_deval/images/purple_triangle.png'></img>,32,850,test,purple_triangle,go1,32,3,3,,,,,,,-1,-1,1400,0,ITI,poldrack-single-stim,507,590439,0.0-6.3-12.3,go_nogo_deval,436,,<div></div>,32,1400,test,,,,,,,,,,,,-1,-1,500,0,fixation,poldrack-single-stim,508,590941,0.0-6.3-13.3,go_nogo_deval,436,,<div class = centerbox><div class = fixation>+</div></div>,none,500,test,,,,,,,,,,,,346,32,850,0,stim,poldrack-single-stim,509,591792,0.0-6.3-14.3,go_nogo_deval,436,,<img class = center src='/static/experiments/go_nogo_deval/images/purple_triangle.png'></img>,32,850,test,purple_triangle,go1,32,4,3,,,,,,,-1,-1,1400,0,ITI,poldrack-single-stim,510,593193,0.0-6.3-15.3,go_nogo_deval,436,,<div></div>,32,1400,test,,,,,,,,,,,,-1,-1,500,0,fixation,poldrack-single-stim,511,593694,0.0-6.3-16.3,go_nogo_deval,436,,<div class = centerbox><div class = fixation>+</div></div>,none,500,test,,,,,,,,,,,,315,32,850,0,stim,poldrack-single-stim,512,594546,0.0-6.3-17.3,go_nogo_deval,436,,<img class = center src='/static/experiments/go_nogo_deval/images/green_circle.png'></img>,32,850,test,green_circle,go2,32,5,3,,,,,,,-1,-1,1400,0,ITI,poldrack-single-stim,513,595948,0.0-6.3-18.3,go_nogo_deval,436,,<div></div>,32,1400,test,,,,,,,,,,,,-1,-1,500,0,fixation,poldrack-single-stim,514,596450,0.0-6.3-19.3,go_nogo_deval,436,,<div class = centerbox><div class = fixation>+</div></div>,none,500,test,,,,,,,,,,,,405,32,850,0,stim,poldrack-single-stim,515,597301,0.0-6.3-20.3,go_nogo_deval,436,,<img class = center src='/static/experiments/go_nogo_deval/images/purple_triangle.png'></img>,32,850,test,purple_triangle,go1,32,6,3,,,,,,,-1,-1,1400,0,ITI,poldrack-single-stim,516,598703,0.0-6.3-21.3,go_nogo_deval,436,,<div></div>,32,1400,test,,,,,,,,,,,,-1,-1,500,0,fixation,poldrack-single-stim,517,599204,0.0-6.3-22.3,go_nogo_deval,436,,<div class = centerbox><div class = fixation>+</div></div>,none,500,test,,,,,,,,,,,,-1,-1,850,0,stim,poldrack-single-stim,518,600056,0.0-6.3-23.3,go_nogo_deval,436,,<img class = center src='/static/experiments/go_nogo_deval/images/red_rhombus.png'></img>,32,850,test,red_rhombus,nogo2,-1,7,3,,,,,,,-1,-1,1400,0,ITI,poldrack-single-stim,519,601457,0.0-6.3-24.3,go_nogo_deval,436,,<div></div>,32,1400,test,,,,,,,,,,,,-1,-1,500,0,fixation,poldrack-single-stim,520,601959,0.0-6.3-25.3,go_nogo_deval,436,,<div class = centerbox><div class = fixation>+</div></div>,none,500,test,,,,,,,,,,,,353,32,850,0,stim,poldrack-single-stim,521,602811,0.0-6.3-26.3,go_nogo_deval,436,,<img class = center src='/static/experiments/go_nogo_deval/images/green_circle.png'></img>,32,850,test,green_circle,go2,32,8,3,,,,,,,-1,-1,1400,0,ITI,poldrack-single-stim,522,604213,0.0-6.3-27.3,go_nogo_deval,436,,<div></div>,32,1400,test,,,,,,,,,,,,-1,-1,500,0,fixation,poldrack-single-stim,523,604715,0.0-6.3-28.3,go_nogo_deval,436,,<div class = centerbox><div class = fixation>+</div></div>,none,500,test,,,,,,,,,,,,-1,-1,850,0,stim,poldrack-single-stim,524,605566,0.0-6.3-29.3,go_nogo_deval,436,,<img class = center src='/static/experiments/go_nogo_deval/images/blue_pentagon.png'></img>,32,850,test,blue_pentagon,nogo1,-1,9,3,,,,,,,-1,-1,1400,0,ITI,poldrack-single-stim,525,606968,0.0-6.3-30.3,go_nogo_deval,436,,<div></div>,32,1400,test,,,,,,,,,,,,-1,-1,500,0,fixation,poldrack-single-stim,526,607470,0.0-6.3-31.3,go_nogo_deval,436,,<div class = centerbox><div class = fixation>+</div></div>,none,500,test,,,,,,,,,,,,-1,-1,850,0,stim,poldrack-single-stim,527,608322,0.0-6.3-32.3,go_nogo_deval,436,,<img class = center src='/static/experiments/go_nogo_deval/images/red_rhombus.png'></img>,32,850,test,red_rhombus,nogo2,-1,10,3,,,,,,,-1,-1,1400,0,ITI,poldrack-single-stim,528,609723,0.0-6.3-33.3,go_nogo_deval,436,,<div></div>,32,1400,test,,,,,,,,,,,,-1,-1,500,0,fixation,poldrack-single-stim,529,610224,0.0-6.3-34.3,go_nogo_deval,436,,<div class = centerbox><div class = fixation>+</div></div>,none,500,test,,,,,,,,,,,,447,32,850,0,stim,poldrack-single-stim,530,611075,0.0-6.3-35.3,go_nogo_deval,436,,<img class = center src='/static/experiments/go_nogo_deval/images/purple_triangle.png'></img>,32,850,test,purple_triangle,go1,32,11,3,,,,,,,-1,-1,1400,0,ITI,poldrack-single-stim,531,612476,0.0-6.3-36.3,go_nogo_deval,436,,<div></div>,32,1400,test,,,,,,,,,,,,-1,-1,500,0,fixation,poldrack-single-stim,532,612978,0.0-6.3-37.3,go_nogo_deval,436,,<div class = centerbox><div class = fixation>+</div></div>,none,500,test,,,,,,,,,,,,-1,-1,850,0,stim,poldrack-single-stim,533,613830,0.0-6.3-38.3,go_nogo_deval,436,,<img class = center src='/static/experiments/go_nogo_deval/images/red_rhombus.png'></img>,32,850,test,red_rhombus,nogo2,-1,12,3,,,,,,,-1,-1,1400,0,ITI,poldrack-single-stim,534,615231,0.0-6.3-39.3,go_nogo_deval,436,,<div></div>,32,1400,test,,,,,,,,,,,,-1,-1,500,0,fixation,poldrack-single-stim,535,615733,0.0-6.3-40.3,go_nogo_deval,436,,<div class = centerbox><div class = fixation>+</div></div>,none,500,test,,,,,,,,,,,,372,32,850,0,stim,poldrack-single-stim,536,616584,0.0-6.3-41.3,go_nogo_deval,436,,<img class = center src='/static/experiments/go_nogo_deval/images/green_circle.png'></img>,32,850,test,green_circle,go2,32,13,3,,,,,,,-1,-1,1400,0,ITI,poldrack-single-stim,537,617986,0.0-6.3-42.3,go_nogo_deval,436,,<div></div>,32,1400,test,,,,,,,,,,,,-1,-1,500,0,fixation,poldrack-single-stim,538,618487,0.0-6.3-43.3,go_nogo_deval,436,,<div class = centerbox><div class = fixation>+</div></div>,none,500,test,,,,,,,,,,,,372,32,850,0,stim,poldrack-single-stim,539,619339,0.0-6.3-44.3,go_nogo_deval,436,,<img class = center src='/static/experiments/go_nogo_deval/images/green_circle.png'></img>,32,850,test,green_circle,go2,32,14,3,,,,,,,-1,-1,1400,0,ITI,poldrack-single-stim,540,620740,0.0-6.3-45.3,go_nogo_deval,436,,<div></div>,32,1400,test,,,,,,,,,,,,-1,-1,500,0,fixation,poldrack-single-stim,541,621242,0.0-6.3-46.3,go_nogo_deval,436,,<div class = centerbox><div class = fixation>+</div></div>,none,500,test,,,,,,,,,,,,-1,-1,850,0,stim,poldrack-single-stim,542,622093,0.0-6.3-47.3,go_nogo_deval,436,,<img class = center src='/static/experiments/go_nogo_deval/images/blue_pentagon.png'></img>,32,850,test,blue_pentagon,nogo1,-1,15,3,,,,,,,-1,-1,1400,0,ITI,poldrack-single-stim,543,623494,0.0-6.3-48.3,go_nogo_deval,436,,<div></div>,32,1400,test,,,,,,,,,,,,-1,-1,500,0,fixation,poldrack-single-stim,544,623996,0.0-6.3-49.3,go_nogo_deval,436,,<div class = centerbox><div class = fixation>+</div></div>,none,500,test,,,,,,,,,,,,-1,-1,850,0,stim,poldrack-single-stim,545,624848,0.0-6.3-50.3,go_nogo_deval,436,,<img class = center src='/static/experiments/go_nogo_deval/images/blue_pentagon.png'></img>,32,850,test,blue_pentagon,nogo1,-1,16,3,,,,,,,-1,-1,1400,0,ITI,poldrack-single-stim,546,626250,0.0-6.3-51.3,go_nogo_deval,436,,<div></div>,32,1400,test,,,,,,,,,,,,-1,-1,500,0,fixation,poldrack-single-stim,547,626752,0.0-6.3-52.3,go_nogo_deval,436,,<div class = centerbox><div class = fixation>+</div></div>,none,500,test,,,,,,,,,,,,445,32,850,0,stim,poldrack-single-stim,548,627604,0.0-6.3-53.3,go_nogo_deval,436,,<img class = center src='/static/experiments/go_nogo_deval/images/purple_triangle.png'></img>,32,850,test,purple_triangle,go1,32,17,3,,,,,,,-1,-1,1400,0,ITI,poldrack-single-stim,549,629005,0.0-6.3-54.3,go_nogo_deval,436,,<div></div>,32,1400,test,,,,,,,,,,,,-1,-1,500,0,fixation,poldrack-single-stim,550,629507,0.0-6.3-55.3,go_nogo_deval,436,,<div class = centerbox><div class = fixation>+</div></div>,none,500,test,,,,,,,,,,,,468,32,850,0,stim,poldrack-single-stim,551,630358,0.0-6.3-56.3,go_nogo_deval,436,,<img class = center src='/static/experiments/go_nogo_deval/images/green_circle.png'></img>,32,850,test,green_circle,go2,32,18,3,,,,,,,-1,-1,1400,0,ITI,poldrack-single-stim,552,631760,0.0-6.3-57.3,go_nogo_deval,436,,<div></div>,32,1400,test,,,,,,,,,,,,-1,-1,500,0,fixation,poldrack-single-stim,553,632262,0.0-6.3-58.3,go_nogo_deval,436,,<div class = centerbox><div class = fixation>+</div></div>,none,500,test,,,,,,,,,,,,369,32,850,0,stim,poldrack-single-stim,554,633113,0.0-6.3-59.3,go_nogo_deval,436,,<img class = center src='/static/experiments/go_nogo_deval/images/green_circle.png'></img>,32,850,test,green_circle,go2,32,19,3,,,,,,,-1,-1,1400,0,ITI,poldrack-single-stim,555,634514,0.0-6.3-60.3,go_nogo_deval,436,,<div></div>,32,1400,test,,,,,,,,,,,,-1,-1,500,0,fixation,poldrack-single-stim,556,635016,0.0-6.3-61.3,go_nogo_deval,436,,<div class = centerbox><div class = fixation>+</div></div>,none,500,test,,,,,,,,,,,,-1,-1,850,0,stim,poldrack-single-stim,557,635867,0.0-6.3-62.3,go_nogo_deval,436,,<img class = center src='/static/experiments/go_nogo_deval/images/red_rhombus.png'></img>,32,850,test,red_rhombus,nogo2,-1,20,3,,,,,,,-1,-1,1400,0,ITI,poldrack-single-stim,558,637269,0.0-6.3-63.3,go_nogo_deval,436,,<div></div>,32,1400,test,,,,,,,,,,,,-1,-1,500,0,fixation,poldrack-single-stim,559,637770,0.0-6.3-64.3,go_nogo_deval,436,,<div class = centerbox><div class = fixation>+</div></div>,none,500,test,,,,,,,,,,,,396,32,850,0,stim,poldrack-single-stim,560,638622,0.0-6.3-65.3,go_nogo_deval,436,,<img class = center src='/static/experiments/go_nogo_deval/images/green_circle.png'></img>,32,850,test,green_circle,go2,32,21,3,,,,,,,-1,-1,1400,0,ITI,poldrack-single-stim,561,640023,0.0-6.3-66.3,go_nogo_deval,436,,<div></div>,32,1400,test,,,,,,,,,,,,-1,-1,500,0,fixation,poldrack-single-stim,562,640525,0.0-6.3-67.3,go_nogo_deval,436,,<div class = centerbox><div class = fixation>+</div></div>,none,500,test,,,,,,,,,,,,341,32,850,0,stim,poldrack-single-stim,563,641376,0.0-6.3-68.3,go_nogo_deval,436,,<img class = center src='/static/experiments/go_nogo_deval/images/green_circle.png'></img>,32,850,test,green_circle,go2,32,22,3,,,,,,,-1,-1,1400,0,ITI,poldrack-single-stim,564,642778,0.0-6.3-69.3,go_nogo_deval,436,,<div></div>,32,1400,test,,,,,,,,,,,,-1,-1,500,0,fixation,poldrack-single-stim,565,643280,0.0-6.3-70.3,go_nogo_deval,436,,<div class = centerbox><div class = fixation>+</div></div>,none,500,test,,,,,,,,,,,,353,32,850,0,stim,poldrack-single-stim,566,644131,0.0-6.3-71.3,go_nogo_deval,436,,<img class = center src='/static/experiments/go_nogo_deval/images/purple_triangle.png'></img>,32,850,test,purple_triangle,go1,32,23,3,,,,,,,-1,-1,1400,0,ITI,poldrack-single-stim,567,645533,0.0-6.3-72.3,go_nogo_deval,436,,<div></div>,32,1400,test,,,,,,,,,,,,-1,-1,500,0,fixation,poldrack-single-stim,568,646035,0.0-6.3-73.3,go_nogo_deval,436,,<div class = centerbox><div class = fixation>+</div></div>,none,500,test,,,,,,,,,,,,366,32,850,0,stim,poldrack-single-stim,569,646887,0.0-6.3-74.3,go_nogo_deval,436,,<img class = center src='/static/experiments/go_nogo_deval/images/green_circle.png'></img>,32,850,test,green_circle,go2,32,24,3,,,,,,,-1,-1,1400,0,ITI,poldrack-single-stim,570,648288,0.0-6.3-75.3,go_nogo_deval,436,,<div></div>,32,1400,test,,,,,,,,,,,,-1,-1,500,0,fixation,poldrack-single-stim,571,648790,0.0-6.3-76.3,go_nogo_deval,436,,<div class = centerbox><div class = fixation>+</div></div>,none,500,test,,,,,,,,,,,