text,rt,key_press,block_duration,timing_post_trial,trial_id,trial_type,trial_index,time_elapsed,internal_node_id,exp_id,subject_ID,view_history,stimulus,possible_responses,stim_duration,exp_stage,stim,go_nogo_type,correct_response,current_trial,current_block,chosenStim,chosenCond,stimLeft,cond_left,stimRight,cond_right<div class = centerbox><p class = center-block-text>Welcome to the task!</p><p class = center-block-text>Press<strong> enter</strong> to continue.</p></div>,1546,13,1546,0,welcome,poldrack-text,0,1547,0.0-0.0,go_nogo_deval,421,,,,,,,,,,,,,,,,,61348,,,,instruction,poldrack-instructions,1,62896,0.0-1.0,go_nogo_deval,421,"[{""page_index"":0,""viewing_time"":3264},{""page_index"":1,""viewing_time"":58084}]",,,,,,,,,,,,,,,,4303,13,4303,0,stop_intro_phase1,poldrack-single-stim,2,68202,0.0-2.0,go_nogo_deval,421,,"<div class = centerbox><p class = block-text>We will now start the practice for the experiment.<br><br>For these trials, you must press the <strong>spacebar </strong> or have <strong>no response</strong> depending on the shape of the stimulus.  Make sure to respond as quickly and accurately as possible to the shape. <br><br> The responses for each shape are as follows: <ul list-text><li>rhombus: spacebar</li><li>circle: spacebar</li><li>pentagon: no response</li><li>triangle: no response</li></ul></p><p class = block-text>Remember these rules before you proceed.</p><p class = block-text>Press <strong> enter</strong> to begin.</p></div>",13,4303,,,,,,,,,,,,,1618,13,1618,0,practice-no-stop-feedback,poldrack-single-stim,3,69823,0.0-3.0-0.0,go_nogo_deval,421,,<div class = centerbox><p class = block-text>We will now start with a practice session. In this practice concentrate on responding quickly and accurately to each stimuli unless it requires no response.</p><p class = block-text>Press enter to continue.</p></div>,13,1618,,,,,,,,,,,,,-1,-1,500,0,prompt_fixation,poldrack-single-stim,4,70326,0.0-3.0-1.0,go_nogo_deval,421,,<div class = centerbox><div class = fixation>+</div></div>,none,500,practice,,,,,,,,,,,,643,32,850,0,stim,poldrack-single-stim,5,71178,0.0-3.0-2.0,go_nogo_deval,421,,<img class = center src='/static/experiments/go_nogo_deval/images/red_rhombus.png'></img>,32,850,practice,red_rhombus,go1,32,0,0,,,,,,,-1,-1,1400,0,ITI,poldrack-single-stim,6,72581,0.0-3.0-3.0,go_nogo_deval,421,,<div></div>,32,1400,practice,,,,,,,,,,,,-1,-1,500,0,prompt_fixation,poldrack-single-stim,7,73083,0.0-3.0-4.0,go_nogo_deval,421,,<div class = centerbox><div class = fixation>+</div></div>,none,500,practice,,,,,,,,,,,,418,32,850,0,stim,poldrack-single-stim,8,73934,0.0-3.0-5.0,go_nogo_deval,421,,<img class = center src='/static/experiments/go_nogo_deval/images/purple_circle.png'></img>,32,850,practice,purple_circle,go2,32,1,0,,,,,,,-1,-1,1400,0,ITI,poldrack-single-stim,9,75336,0.0-3.0-6.0,go_nogo_deval,421,,<div></div>,32,1400,practice,,,,,,,,,,,,-1,-1,500,0,prompt_fixation,poldrack-single-stim,10,75837,0.0-3.0-7.0,go_nogo_deval,421,,<div class = centerbox><div class = fixation>+</div></div>,none,500,practice,,,,,,,,,,,,475,32,850,0,stim,poldrack-single-stim,11,76689,0.0-3.0-8.0,go_nogo_deval,421,,<img class = center src='/static/experiments/go_nogo_deval/images/purple_circle.png'></img>,32,850,practice,purple_circle,go2,32,2,0,,,,,,,-1,-1,1400,0,ITI,poldrack-single-stim,12,78091,0.0-3.0-9.0,go_nogo_deval,421,,<div></div>,32,1400,practice,,,,,,,,,,,,-1,-1,500,0,prompt_fixation,poldrack-single-stim,13,78593,0.0-3.0-10.0,go_nogo_deval,421,,<div class = centerbox><div class = fixation>+</div></div>,none,500,practice,,,,,,,,,,,,420,32,850,0,stim,poldrack-single-stim,14,79445,0.0-3.0-11.0,go_nogo_deval,421,,<img class = center src='/static/experiments/go_nogo_deval/images/purple_circle.png'></img>,32,850,practice,purple_circle,go2,32,3,0,,,,,,,-1,-1,1400,0,ITI,poldrack-single-stim,15,80847,0.0-3.0-12.0,go_nogo_deval,421,,<div></div>,32,1400,practice,,,,,,,,,,,,-1,-1,500,0,prompt_fixation,poldrack-single-stim,16,81349,0.0-3.0-13.0,go_nogo_deval,421,,<div class = centerbox><div class = fixation>+</div></div>,none,500,practice,,,,,,,,,,,,566,32,850,0,stim,poldrack-single-stim,17,82201,0.0-3.0-14.0,go_nogo_deval,421,,<img class = center src='/static/experiments/go_nogo_deval/images/red_rhombus.png'></img>,32,850,practice,red_rhombus,go1,32,4,0,,,,,,,-1,-1,1400,0,ITI,poldrack-single-stim,18,83603,0.0-3.0-15.0,go_nogo_deval,421,,<div></div>,32,1400,practice,,,,,,,,,,,,-1,-1,500,0,prompt_fixation,poldrack-single-stim,19,84105,0.0-3.0-16.0,go_nogo_deval,421,,<div class = centerbox><div class = fixation>+</div></div>,none,500,practice,,,,,,,,,,,,399,32,850,0,stim,poldrack-single-stim,20,84956,0.0-3.0-17.0,go_nogo_deval,421,,<img class = center src='/static/experiments/go_nogo_deval/images/purple_circle.png'></img>,32,850,practice,purple_circle,go2,32,5,0,,,,,,,-1,-1,1400,0,ITI,poldrack-single-stim,21,86358,0.0-3.0-18.0,go_nogo_deval,421,,<div></div>,32,1400,practice,,,,,,,,,,,,-1,-1,500,0,prompt_fixation,poldrack-single-stim,22,86860,0.0-3.0-19.0,go_nogo_deval,421,,<div class = centerbox><div class = fixation>+</div></div>,none,500,practice,,,,,,,,,,,,512,32,850,0,stim,poldrack-single-stim,23,87712,0.0-3.0-20.0,go_nogo_deval,421,,<img class = center src='/static/experiments/go_nogo_deval/images/red_rhombus.png'></img>,32,850,practice,red_rhombus,go1,32,6,0,,,,,,,-1,-1,1400,0,ITI,poldrack-single-stim,24,89114,0.0-3.0-21.0,go_nogo_deval,421,,<div></div>,32,1400,practice,,,,,,,,,,,,-1,-1,500,0,prompt_fixation,poldrack-single-stim,25,89616,0.0-3.0-22.0,go_nogo_deval,421,,<div class = centerbox><div class = fixation>+</div></div>,none,500,practice,,,,,,,,,,,,444,32,850,0,stim,poldrack-single-stim,26,90468,0.0-3.0-23.0,go_nogo_deval,421,,<img class = center src='/static/experiments/go_nogo_deval/images/red_rhombus.png'></img>,32,850,practice,red_rhombus,go1,32,7,0,,,,,,,-1,-1,1400,0,ITI,poldrack-single-stim,27,91870,0.0-3.0-24.0,go_nogo_deval,421,,<div></div>,32,1400,practice,,,,,,,,,,,,-1,-1,500,0,prompt_fixation,poldrack-single-stim,28,92372,0.0-3.0-25.0,go_nogo_deval,421,,<div class = centerbox><div class = fixation>+</div></div>,none,500,practice,,,,,,,,,,,,-1,-1,850,0,stim,poldrack-single-stim,29,93224,0.0-3.0-26.0,go_nogo_deval,421,,<img class = center src='/static/experiments/go_nogo_deval/images/blue_triangle.png'></img>,32,850,practice,blue_triangle,nogo2,-1,8,0,,,,,,,-1,-1,1400,0,ITI,poldrack-single-stim,30,94625,0.0-3.0-27.0,go_nogo_deval,421,,<div></div>,32,1400,practice,,,,,,,,,,,,-1,-1,500,0,prompt_fixation,poldrack-single-stim,31,95126,0.0-3.0-28.0,go_nogo_deval,421,,<div class = centerbox><div class = fixation>+</div></div>,none,500,practice,,,,,,,,,,,,-1,-1,850,0,stim,poldrack-single-stim,32,95978,0.0-3.0-29.0,go_nogo_deval,421,,<img class = center src='/static/experiments/go_nogo_deval/images/green_pentagon.png'></img>,32,850,practice,green_pentagon,nogo1,-1,9,0,,,,,,,-1,-1,1400,0,ITI,poldrack-single-stim,33,97380,0.0-3.0-30.0,go_nogo_deval,421,,<div></div>,32,1400,practice,,,,,,,,,,,,-1,-1,500,0,prompt_fixation,poldrack-single-stim,34,97882,0.0-3.0-31.0,go_nogo_deval,421,,<div class = centerbox><div class = fixation>+</div></div>,none,500,practice,,,,,,,,,,,,481,32,850,0,stim,poldrack-single-stim,35,98734,0.0-3.0-32.0,go_nogo_deval,421,,<img class = center src='/static/experiments/go_nogo_deval/images/purple_circle.png'></img>,32,850,practice,purple_circle,go2,32,10,0,,,,,,,-1,-1,1400,0,ITI,poldrack-single-stim,36,100136,0.0-3.0-33.0,go_nogo_deval,421,,<div></div>,32,1400,practice,,,,,,,,,,,,-1,-1,500,0,prompt_fixation,poldrack-single-stim,37,100638,0.0-3.0-34.0,go_nogo_deval,421,,<div class = centerbox><div class = fixation>+</div></div>,none,500,practice,,,,,,,,,,,,392,32,850,0,stim,poldrack-single-stim,38,101490,0.0-3.0-35.0,go_nogo_deval,421,,<img class = center src='/static/experiments/go_nogo_deval/images/red_rhombus.png'></img>,32,850,practice,red_rhombus,go1,32,11,0,,,,,,,-1,-1,1400,0,ITI,poldrack-single-stim,39,102892,0.0-3.0-36.0,go_nogo_deval,421,,<div></div>,32,1400,practice,,,,,,,,,,,,-1,-1,500,0,prompt_fixation,poldrack-single-stim,40,103393,0.0-3.0-37.0,go_nogo_deval,421,,<div class = centerbox><div class = fixation>+</div></div>,none,500,practice,,,,,,,,,,,,-1,-1,850,0,stim,poldrack-single-stim,41,104245,0.0-3.0-38.0,go_nogo_deval,421,,<img class = center src='/static/experiments/go_nogo_deval/images/green_pentagon.png'></img>,32,850,practice,green_pentagon,nogo1,-1,12,0,,,,,,,-1,-1,1400,0,ITI,poldrack-single-stim,42,105647,0.0-3.0-39.0,go_nogo_deval,421,,<div></div>,32,1400,practice,,,,,,,,,,,,-1,-1,500,0,prompt_fixation,poldrack-single-stim,43,106149,0.0-3.0-40.0,go_nogo_deval,421,,<div class = centerbox><div class = fixation>+</div></div>,none,500,practice,,,,,,,,,,,,-1,-1,850,0,stim,poldrack-single-stim,44,107000,0.0-3.0-41.0,go_nogo_deval,421,,<img class = center src='/static/experiments/go_nogo_deval/images/blue_triangle.png'></img>,32,850,practice,blue_triangle,nogo2,-1,13,0,,,,,,,-1,-1,1400,0,ITI,poldrack-single-stim,45,108401,0.0-3.0-42.0,go_nogo_deval,421,,<div></div>,32,1400,practice,,,,,,,,,,,,-1,-1,500,0,prompt_fixation,poldrack-single-stim,46,108904,0.0-3.0-43.0,go_nogo_deval,421,,<div class = centerbox><div class = fixation>+</div></div>,none,500,practice,,,,,,,,,,,,-1,-1,850,0,stim,poldrack-single-stim,47,109756,0.0-3.0-44.0,go_nogo_deval,421,,<img class = center src='/static/experiments/go_nogo_deval/images/blue_triangle.png'></img>,32,850,practice,blue_triangle,nogo2,-1,14,0,,,,,,,-1,-1,1400,0,ITI,poldrack-single-stim,48,111158,0.0-3.0-45.0,go_nogo_deval,421,,<div></div>,32,1400,practice,,,,,,,,,,,,-1,-1,500,0,prompt_fixation,poldrack-single-stim,49,111660,0.0-3.0-46.0,go_nogo_deval,421,,<div class = centerbox><div class = fixation>+</div></div>,none,500,practice,,,,,,,,,,,,463,32,850,0,stim,poldrack-single-stim,50,112512,0.0-3.0-47.0,go_nogo_deval,421,,<img class = center src='/static/experiments/go_nogo_deval/images/purple_circle.png'></img>,32,850,practice,purple_circle,go2,32,15,0,,,,,,,-1,-1,1400,0,ITI,poldrack-single-stim,51,113914,0.0-3.0-48.0,go_nogo_deval,421,,<div></div>,32,1400,practice,,,,,,,,,,,,-1,-1,500,0,prompt_fixation,poldrack-single-stim,52,114415,0.0-3.0-49.0,go_nogo_deval,421,,<div class = centerbox><div class = fixation>+</div></div>,none,500,practice,,,,,,,,,,,,417,32,850,0,stim,poldrack-single-stim,53,115267,0.0-3.0-50.0,go_nogo_deval,421,,<img class = center src='/static/experiments/go_nogo_deval/images/red_rhombus.png'></img>,32,850,practice,red_rhombus,go1,32,16,0,,,,,,,-1,-1,1400,0,ITI,poldrack-single-stim,54,116669,0.0-3.0-51.0,go_nogo_deval,421,,<div></div>,32,1400,practice,,,,,,,,,,,,-1,-1,500,0,prompt_fixation,poldrack-single-stim,55,117172,0.0-3.0-52.0,go_nogo_deval,421,,<div class = centerbox><div class = fixation>+</div></div>,none,500,practice,,,,,,,,,,,,-1,-1,850,0,stim,poldrack-single-stim,56,118024,0.0-3.0-53.0,go_nogo_deval,421,,<img class = center src='/static/experiments/go_nogo_deval/images/green_pentagon.png'></img>,32,850,practice,green_pentagon,nogo1,-1,17,0,,,,,,,-1,-1,1400,0,ITI,poldrack-single-stim,57,119425,0.0-3.0-54.0,go_nogo_deval,421,,<div></div>,32,1400,practice,,,,,,,,,,,,3272,13,3272,0,practice-no-stop-feedback,poldrack-single-stim,58,122698,0.0-4.0,go_nogo_deval,421,,<div class = centerbox><p class = block-text><br>Please take this time to read your feedback and to take a short break! Press enter to continue</p><p class = block-text><strong>Average reaction time:  469 ms. Accuracy: 100%</strong></p><p class = block-text>Done with this practice.</p></div>,13,3272,,,,,,,,,,,,,34807,13,34807,0,main_stop_intro_phase3,poldrack-single-stim,59,157506,0.0-5.0,go_nogo_deval,421,,"<div class = centerbox><p class = block-text>We will now start the main phase of the experiment.<br><br>These trials are the same as the trials that you have just completed. <br><br>The rules for each shape are as follows:  <br><ul list-text><li>rhombus: spacebar</li><li>circle: spacebar</li><li>pentagon: no response</li><li>triangle: no response</li></ul></p><p class = block-text>Remember these rules before you proceed, as they will no longer be presented during the trial.</p><p class = block-text>Press <strong> enter</strong> to begin.</p></div>",13,34807,,,,,,,,,,,,,1776,13,1776,0,practice-no-stop-feedback,poldrack-single-stim,60,159283,0.0-6.0-0.0,go_nogo_deval,421,,"<div class = centerbox><p class = block-text>We will now start with a test session. In this test, concentrate on responding quickly and accurately to each stimuli unless it requires no response.</p><p class = block-text>Press enter to continue.</p></div>",13,1776,,,,,,,,,,,,,-1,-1,500,0,fixation,poldrack-single-stim,61,159785,0.0-6.0-1.0,go_nogo_deval,421,,<div class = centerbox><div class = fixation>+</div></div>,none,500,test,,,,,,,,,,,,555,32,850,0,stim,poldrack-single-stim,62,160637,0.0-6.0-2.0,go_nogo_deval,421,,<img class = center src='/static/experiments/go_nogo_deval/images/purple_circle.png'></img>,32,850,test,purple_circle,go2,32,0,0,,,,,,,-1,-1,1400,0,ITI,poldrack-single-stim,63,162039,0.0-6.0-3.0,go_nogo_deval,421,,<div></div>,32,1400,test,,,,,,,,,,,,-1,-1,500,0,fixation,poldrack-single-stim,64,162540,0.0-6.0-4.0,go_nogo_deval,421,,<div class = centerbox><div class = fixation>+</div></div>,none,500,test,,,,,,,,,,,,354,32,850,0,stim,poldrack-single-stim,65,163391,0.0-6.0-5.0,go_nogo_deval,421,,<img class = center src='/static/experiments/go_nogo_deval/images/red_rhombus.png'></img>,32,850,test,red_rhombus,go1,32,1,0,,,,,,,-1,-1,1400,0,ITI,poldrack-single-stim,66,164793,0.0-6.0-6.0,go_nogo_deval,421,,<div></div>,32,1400,test,,,,,,,,,,,,-1,-1,500,0,fixation,poldrack-single-stim,67,165294,0.0-6.0-7.0,go_nogo_deval,421,,<div class = centerbox><div class = fixation>+</div></div>,none,500,test,,,,,,,,,,,,401,32,850,0,stim,poldrack-single-stim,68,166146,0.0-6.0-8.0,go_nogo_deval,421,,<img class = center src='/static/experiments/go_nogo_deval/images/red_rhombus.png'></img>,32,850,test,red_rhombus,go1,32,2,0,,,,,,,-1,-1,1400,0,ITI,poldrack-single-stim,69,167547,0.0-6.0-9.0,go_nogo_deval,421,,<div></div>,32,1400,test,,,,,,,,,,,,-1,-1,500,0,fixation,poldrack-single-stim,70,168049,0.0-6.0-10.0,go_nogo_deval,421,,<div class = centerbox><div class = fixation>+</div></div>,none,500,test,,,,,,,,,,,,-1,-1,850,0,stim,poldrack-single-stim,71,168901,0.0-6.0-11.0,go_nogo_deval,421,,<img class = center src='/static/experiments/go_nogo_deval/images/green_pentagon.png'></img>,32,850,test,green_pentagon,nogo1,-1,3,0,,,,,,,-1,-1,1400,0,ITI,poldrack-single-stim,72,170303,0.0-6.0-12.0,go_nogo_deval,421,,<div></div>,32,1400,test,,,,,,,,,,,,-1,-1,500,0,fixation,poldrack-single-stim,73,170805,0.0-6.0-13.0,go_nogo_deval,421,,<div class = centerbox><div class = fixation>+</div></div>,none,500,test,,,,,,,,,,,,-1,-1,850,0,stim,poldrack-single-stim,74,171656,0.0-6.0-14.0,go_nogo_deval,421,,<img class = center src='/static/experiments/go_nogo_deval/images/green_pentagon.png'></img>,32,850,test,green_pentagon,nogo1,-1,4,0,,,,,,,-1,-1,1400,0,ITI,poldrack-single-stim,75,173058,0.0-6.0-15.0,go_nogo_deval,421,,<div></div>,32,1400,test,,,,,,,,,,,,-1,-1,500,0,fixation,poldrack-single-stim,76,173559,0.0-6.0-16.0,go_nogo_deval,421,,<div class = centerbox><div class = fixation>+</div></div>,none,500,test,,,,,,,,,,,,-1,-1,850,0,stim,poldrack-single-stim,77,174411,0.0-6.0-17.0,go_nogo_deval,421,,<img class = center src='/static/experiments/go_nogo_deval/images/green_pentagon.png'></img>,32,850,test,green_pentagon,nogo1,-1,5,0,,,,,,,-1,-1,1400,0,ITI,poldrack-single-stim,78,175812,0.0-6.0-18.0,go_nogo_deval,421,,<div></div>,32,1400,test,,,,,,,,,,,,-1,-1,500,0,fixation,poldrack-single-stim,79,176314,0.0-6.0-19.0,go_nogo_deval,421,,<div class = centerbox><div class = fixation>+</div></div>,none,500,test,,,,,,,,,,,,373,32,850,0,stim,poldrack-single-stim,80,177166,0.0-6.0-20.0,go_nogo_deval,421,,<img class = center src='/static/experiments/go_nogo_deval/images/red_rhombus.png'></img>,32,850,test,red_rhombus,go1,32,6,0,,,,,,,-1,-1,1400,0,ITI,poldrack-single-stim,81,178567,0.0-6.0-21.0,go_nogo_deval,421,,<div></div>,32,1400,test,,,,,,,,,,,,-1,-1,500,0,fixation,poldrack-single-stim,82,179068,0.0-6.0-22.0,go_nogo_deval,421,,<div class = centerbox><div class = fixation>+</div></div>,none,500,test,,,,,,,,,,,,-1,-1,850,0,stim,poldrack-single-stim,83,179920,0.0-6.0-23.0,go_nogo_deval,421,,<img class = center src='/static/experiments/go_nogo_deval/images/green_pentagon.png'></img>,32,850,test,green_pentagon,nogo1,-1,7,0,,,,,,,-1,-1,1400,0,ITI,poldrack-single-stim,84,181322,0.0-6.0-24.0,go_nogo_deval,421,,<div></div>,32,1400,test,,,,,,,,,,,,-1,-1,500,0,fixation,poldrack-single-stim,85,181824,0.0-6.0-25.0,go_nogo_deval,421,,<div class = centerbox><div class = fixation>+</div></div>,none,500,test,,,,,,,,,,,,-1,-1,850,0,stim,poldrack-single-stim,86,182676,0.0-6.0-26.0,go_nogo_deval,421,,<img class = center src='/static/experiments/go_nogo_deval/images/blue_triangle.png'></img>,32,850,test,blue_triangle,nogo2,-1,8,0,,,,,,,-1,-1,1400,0,ITI,poldrack-single-stim,87,184077,0.0-6.0-27.0,go_nogo_deval,421,,<div></div>,32,1400,test,,,,,,,,,,,,-1,-1,500,0,fixation,poldrack-single-stim,88,184579,0.0-6.0-28.0,go_nogo_deval,421,,<div class = centerbox><div class = fixation>+</div></div>,none,500,test,,,,,,,,,,,,-1,-1,850,0,stim,poldrack-single-stim,89,185430,0.0-6.0-29.0,go_nogo_deval,421,,<img class = center src='/static/experiments/go_nogo_deval/images/blue_triangle.png'></img>,32,850,test,blue_triangle,nogo2,-1,9,0,,,,,,,-1,-1,1400,0,ITI,poldrack-single-stim,90,186832,0.0-6.0-30.0,go_nogo_deval,421,,<div></div>,32,1400,test,,,,,,,,,,,,-1,-1,500,0,fixation,poldrack-single-stim,91,187335,0.0-6.0-31.0,go_nogo_deval,421,,<div class = centerbox><div class = fixation>+</div></div>,none,500,test,,,,,,,,,,,,512,32,850,0,stim,poldrack-single-stim,92,188187,0.0-6.0-32.0,go_nogo_deval,421,,<img class = center src='/static/experiments/go_nogo_deval/images/purple_circle.png'></img>,32,850,test,purple_circle,go2,32,10,0,,,,,,,-1,-1,1400,0,ITI,poldrack-single-stim,93,189589,0.0-6.0-33.0,go_nogo_deval,421,,<div></div>,32,1400,test,,,,,,,,,,,,-1,-1,500,0,fixation,poldrack-single-stim,94,190090,0.0-6.0-34.0,go_nogo_deval,421,,<div class = centerbox><div class = fixation>+</div></div>,none,500,test,,,,,,,,,,,,489,32,850,0,stim,poldrack-single-stim,95,190942,0.0-6.0-35.0,go_nogo_deval,421,,<img class = center src='/static/experiments/go_nogo_deval/images/purple_circle.png'></img>,32,850,test,purple_circle,go2,32,11,0,,,,,,,-1,-1,1400,0,ITI,poldrack-single-stim,96,192344,0.0-6.0-36.0,go_nogo_deval,421,,<div></div>,32,1400,test,,,,,,,,,,,,-1,-1,500,0,fixation,poldrack-single-stim,97,192846,0.0-6.0-37.0,go_nogo_deval,421,,<div class = centerbox><div class = fixation>+</div></div>,none,500,test,,,,,,,,,,,,412,32,850,0,stim,poldrack-single-stim,98,193696,0.0-6.0-38.0,go_nogo_deval,421,,<img class = center src='/static/experiments/go_nogo_deval/images/purple_circle.png'></img>,32,850,test,purple_circle,go2,32,12,0,,,,,,,-1,-1,1400,0,ITI,poldrack-single-stim,99,195098,0.0-6.0-39.0,go_nogo_deval,421,,<div></div>,32,1400,test,,,,,,,,,,,,-1,-1,500,0,fixation,poldrack-single-stim,100,195600,0.0-6.0-40.0,go_nogo_deval,421,,<div class = centerbox><div class = fixation>+</div></div>,none,500,test,,,,,,,,,,,,-1,-1,850,0,stim,poldrack-single-stim,101,196452,0.0-6.0-41.0,go_nogo_deval,421,,<img class = center src='/static/experiments/go_nogo_deval/images/blue_triangle.png'></img>,32,850,test,blue_triangle,nogo2,-1,13,0,,,,,,,-1,-1,1400,0,ITI,poldrack-single-stim,102,197854,0.0-6.0-42.0,go_nogo_deval,421,,<div></div>,32,1400,test,,,,,,,,,,,,-1,-1,500,0,fixation,poldrack-single-stim,103,198356,0.0-6.0-43.0,go_nogo_deval,421,,<div class = centerbox><div class = fixation>+</div></div>,none,500,test,,,,,,,,,,,,-1,-1,850,0,stim,poldrack-single-stim,104,199208,0.0-6.0-44.0,go_nogo_deval,421,,<img class = center src='/static/experiments/go_nogo_deval/images/blue_triangle.png'></img>,32,850,test,blue_triangle,nogo2,-1,14,0,,,,,,,-1,-1,1400,0,ITI,poldrack-single-stim,105,200610,0.0-6.0-45.0,go_nogo_deval,421,,<div></div>,32,1400,test,,,,,,,,,,,,-1,-1,500,0,fixation,poldrack-single-stim,106,201112,0.0-6.0-46.0,go_nogo_deval,421,,<div class = centerbox><div class = fixation>+</div></div>,none,500,test,,,,,,,,,,,,-1,-1,850,0,stim,poldrack-single-stim,107,201964,0.0-6.0-47.0,go_nogo_deval,421,,<img class = center src='/static/experiments/go_nogo_deval/images/blue_triangle.png'></img>,32,850,test,blue_triangle,nogo2,-1,15,0,,,,,,,-1,-1,1400,0,ITI,poldrack-single-stim,108,203366,0.0-6.0-48.0,go_nogo_deval,421,,<div></div>,32,1400,test,,,,,,,,,,,,-1,-1,500,0,fixation,poldrack-single-stim,109,203867,0.0-6.0-49.0,go_nogo_deval,421,,<div class = centerbox><div class = fixation>+</div></div>,none,500,test,,,,,,,,,,,,393,32,850,0,stim,poldrack-single-stim,110,204719,0.0-6.0-50.0,go_nogo_deval,421,,<img class = center src='/static/experiments/go_nogo_deval/images/purple_circle.png'></img>,32,850,test,purple_circle,go2,32,16,0,,,,,,,-1,-1,1400,0,ITI,poldrack-single-stim,111,206121,0.0-6.0-51.0,go_nogo_deval,421,,<div></div>,32,1400,test,,,,,,,,,,,,-1,-1,500,0,fixation,poldrack-single-stim,112,206623,0.0-6.0-52.0,go_nogo_deval,421,,<div class = centerbox><div class = fixation>+</div></div>,none,500,test,,,,,,,,,,,,427,32,850,0,stim,poldrack-single-stim,113,207476,0.0-6.0-53.0,go_nogo_deval,421,,<img class = center src='/static/experiments/go_nogo_deval/images/purple_circle.png'></img>,32,850,test,purple_circle,go2,32,17,0,,,,,,,-1,-1,1400,0,ITI,poldrack-single-stim,114,208877,0.0-6.0-54.0,go_nogo_deval,421,,<div></div>,32,1400,test,,,,,,,,,,,,-1,-1,500,0,fixation,poldrack-single-stim,115,209379,0.0-6.0-55.0,go_nogo_deval,421,,<div class = centerbox><div class = fixation>+</div></div>,none,500,test,,,,,,,,,,,,428,32,850,0,stim,poldrack-single-stim,116,210230,0.0-6.0-56.0,go_nogo_deval,421,,<img class = center src='/static/experiments/go_nogo_deval/images/purple_circle.png'></img>,32,850,test,purple_circle,go2,32,18,0,,,,,,,-1,-1,1400,0,ITI,poldrack-single-stim,117,211632,0.0-6.0-57.0,go_nogo_deval,421,,<div></div>,32,1400,test,,,,,,,,,,,,-1,-1,500,0,fixation,poldrack-single-stim,118,212133,0.0-6.0-58.0,go_nogo_deval,421,,<div class = centerbox><div class = fixation>+</div></div>,none,500,test,,,,,,,,,,,,-1,-1,850,0,stim,poldrack-single-stim,119,212985,0.0-6.0-59.0,go_nogo_deval,421,,<img class = center src='/static/experiments/go_nogo_deval/images/blue_triangle.png'></img>,32,850,test,blue_triangle,nogo2,-1,19,0,,,,,,,-1,-1,1400,0,ITI,poldrack-single-stim,120,214387,0.0-6.0-60.0,go_nogo_deval,421,,<div></div>,32,1400,test,,,,,,,,,,,,-1,-1,500,0,fixation,poldrack-single-stim,121,214889,0.0-6.0-61.0,go_nogo_deval,421,,<div class = centerbox><div class = fixation>+</div></div>,none,500,test,,,,,,,,,,,,-1,-1,850,0,stim,poldrack-single-stim,122,215741,0.0-6.0-62.0,go_nogo_deval,421,,<img class = center src='/static/experiments/go_nogo_deval/images/green_pentagon.png'></img>,32,850,test,green_pentagon,nogo1,-1,20,0,,,,,,,-1,-1,1400,0,ITI,poldrack-single-stim,123,217142,0.0-6.0-63.0,go_nogo_deval,421,,<div></div>,32,1400,test,,,,,,,,,,,,-1,-1,500,0,fixation,poldrack-single-stim,124,217643,0.0-6.0-64.0,go_nogo_deval,421,,<div class = centerbox><div class = fixation>+</div></div>,none,500,test,,,,,,,,,,,,-1,-1,850,0,stim,poldrack-single-stim,125,218495,0.0-6.0-65.0,go_nogo_deval,421,,<img class = center src='/static/experiments/go_nogo_deval/images/green_pentagon.png'></img>,32,850,test,green_pentagon,nogo1,-1,21,0,,,,,,,-1,-1,1400,0,ITI,poldrack-single-stim,126,219896,0.0-6.0-66.0,go_nogo_deval,421,,<div></div>,32,1400,test,,,,,,,,,,,,-1,-1,500,0,fixation,poldrack-single-stim,127,220398,0.0-6.0-67.0,go_nogo_deval,421,,<div class = centerbox><div class = fixation>+</div></div>,none,500,test,,,,,,,,,,,,502,32,850,0,stim,poldrack-single-stim,128,221250,0.0-6.0-68.0,go_nogo_deval,421,,<img class = center src='/static/experiments/go_nogo_deval/images/purple_circle.png'></img>,32,850,test,purple_circle,go2,32,22,0,,,,,,,-1,-1,1400,0,ITI,poldrack-single-stim,129,222652,0.0-6.0-69.0,go_nogo_deval,421,,<div></div>,32,1400,test,,,,,,,,,,,,-1,-1,500,0,fixation,poldrack-single-stim,130,223154,0.0-6.0-70.0,go_nogo_deval,421,,<div class = centerbox><div class = fixation>+</div></div>,none,500,test,,,,,,,,,,,,321,32,850,0,stim,poldrack-single-stim,131,224005,0.0-6.0-71.0,go_nogo_deval,421,,<img class = center src='/static/experiments/go_nogo_deval/images/red_rhombus.png'></img>,32,850,test,red_rhombus,go1,32,23,0,,,,,,,-1,-1,1400,0,ITI,poldrack-single-stim,132,225407,0.0-6.0-72.0,go_nogo_deval,421,,<div></div>,32,1400,test,,,,,,,,,,,,-1,-1,500,0,fixation,poldrack-single-stim,133,225910,0.0-6.0-73.0,go_nogo_deval,421,,<div class = centerbox><div class = fixation>+</div></div>,none,500,test,,,,,,,,,,,,333,32,850,0,stim,poldrack-single-stim,134,226761,0.0-6.0-74.0,go_nogo_deval,421,,<img class = center src='/static/experiments/go_nogo_deval/images/purple_circle.png'></img>,32,850,test,purple_circle,go2,32,24,0,,,,,,,-1,-1,1400,0,ITI,poldrack-single-stim,135,228163,0.0-6.0-75.0,go_nogo_deval,421,,<div></div>,32,1400,test,,,,,,,,,,,,-1,-1,500,0,fixation,poldrack-single-stim,136,228664,0.0-6.0-76.0,go_nogo_deval,421,,<div class = centerbox><div class = fixation>+</div></div>,none,500,test,,,,,,,,,,,,368,32,850,0,stim,poldrack-single-stim,137,229515,0.0-6.0-77.0,go_nogo_deval,421,,<img class = center src='/static/experiments/go_nogo_deval/images/purple_circle.png'></img>,32,850,test,purple_circle,go2,32,25,0,,,,,,,-1,-1,1400,0,ITI,poldrack-single-stim,138,230916,0.0-6.0-78.0,go_nogo_deval,421,,<div></div>,32,1400,test,,,,,,,,,,,,-1,-1,500,0,fixation,poldrack-single-stim,139,231418,0.0-6.0-79.0,go_nogo_deval,421,,<div class = centerbox><div class = fixation>+</div></div>,none,500,test,,,,,,,,,,,,382,32,850,0,stim,poldrack-single-stim,140,232270,0.0-6.0-80.0,go_nogo_deval,421,,<img class = center src='/static/experiments/go_nogo_deval/images/red_rhombus.png'></img>,32,850,test,red_rhombus,go1,32,26,0,,,,,,,-1,-1,1400,0,ITI,poldrack-single-stim,141,233672,0.0-6.0-81.0,go_nogo_deval,421,,<div></div>,32,1400,test,,,,,,,,,,,,-1,-1,500,0,fixation,poldrack-single-stim,142,234173,0.0-6.0-82.0,go_nogo_deval,421,,<div class = centerbox><div class = fixation>+</div></div>,none,500,test,,,,,,,,,,,,294,32,850,0,stim,poldrack-single-stim,143,235025,0.0-6.0-83.0,go_nogo_deval,421,,<img class = center src='/static/experiments/go_nogo_deval/images/red_rhombus.png'></img>,32,850,test,red_rhombus,go1,32,27,0,,,,,,,-1,-1,1400,0,ITI,poldrack-single-stim,144,236427,0.0-6.0-84.0,go_nogo_deval,421,,<div></div>,32,1400,test,,,,,,,,,,,,-1,-1,500,0,fixation,poldrack-single-stim,145,236929,0.0-6.0-85.0,go_nogo_deval,421,,<div class = centerbox><div class = fixation>+</div></div>,none,500,test,,,,,,,,,,,,384,32,850,0,stim,poldrack-single-stim,146,237781,0.0-6.0-86.0,go_nogo_deval,421,,<img class = center src='/static/experiments/go_nogo_deval/images/red_rhombus.png'></img>,32,850,test,red_rhombus,go1,32,28,0,,,,,,,-1,-1,1400,0,ITI,poldrack-single-stim,147,239182,0.0-6.0-87.0,go_nogo_deval,421,,<div></div>,32,1400,test,,,,,,,,,,,,-1,-1,500,0,fixation,poldrack-single-stim,148,239684,0.0-6.0-88.0,go_nogo_deval,421,,<div class = centerbox><div class = fixation>+</div></div>,none,500,test,,,,,,,,,,,,318,32,850,0,stim,poldrack-single-stim,149,240535,0.0-6.0-89.0,go_nogo_deval,421,,<img class = center src='/static/experiments/go_nogo_deval/images/red_rhombus.png'></img>,32,850,test,red_rhombus,go1,32,29,0,,,,,,,-1,-1,1400,0,ITI,poldrack-single-stim,150,241936,0.0-6.0-90.0,go_nogo_deval,421,,<div></div>,32,1400,test,,,,,,,,,,,,-1,-1,500,0,fixation,poldrack-single-stim,151,242438,0.0-6.0-91.0,go_nogo_deval,421,,<div class = centerbox><div class = fixation>+</div></div>,none,500,test,,,,,,,,,,,,286,32,850,0,stim,poldrack-single-stim,152,243290,0.0-6.0-92.0,go_nogo_deval,421,,<img class = center src='/static/experiments/go_nogo_deval/images/red_rhombus.png'></img>,32,850,test,red_rhombus,go1,32,30,0,,,,,,,-1,-1,1400,0,ITI,poldrack-single-stim,153,244691,0.0-6.0-93.0,go_nogo_deval,421,,<div></div>,32,1400,test,,,,,,,,,,,,-1,-1,500,0,fixation,poldrack-single-stim,154,245192,0.0-6.0-94.0,go_nogo_deval,421,,<div class = centerbox><div class = fixation>+</div></div>,none,500,test,,,,,,,,,,,,299,32,850,0,stim,poldrack-single-stim,155,246043,0.0-6.0-95.0,go_nogo_deval,421,,<img class = center src='/static/experiments/go_nogo_deval/images/red_rhombus.png'></img>,32,850,test,red_rhombus,go1,32,31,0,,,,,,,-1,-1,1400,0,ITI,poldrack-single-stim,156,247445,0.0-6.0-96.0,go_nogo_deval,421,,<div></div>,32,1400,test,,,,,,,,,,,,-1,-1,500,0,fixation,poldrack-single-stim,157,247947,0.0-6.0-97.0,go_nogo_deval,421,,<div class = centerbox><div class = fixation>+</div></div>,none,500,test,,,,,,,,,,,,391,32,850,0,stim,poldrack-single-stim,158,248798,0.0-6.0-98.0,go_nogo_deval,421,,<img class = center src='/static/experiments/go_nogo_deval/images/purple_circle.png'></img>,32,850,test,purple_circle,go2,32,32,0,,,,,,,-1,-1,1400,0,ITI,poldrack-single-stim,159,250199,0.0-6.0-99.0,go_nogo_deval,421,,<div></div>,32,1400,test,,,,,,,,,,,,-1,-1,500,0,fixation,poldrack-single-stim,160,250700,0.0-6.0-100.0,go_nogo_deval,421,,<div class = centerbox><div class = fixation>+</div></div>,none,500,test,,,,,,,,,,,,406,32,850,0,stim,poldrack-single-stim,161,251552,0.0-6.0-101.0,go_nogo_deval,421,,<img class = center src='/static/experiments/go_nogo_deval/images/red_rhombus.png'></img>,32,850,test,red_rhombus,go1,32,33,0,,,,,,,-1,-1,1400,0,ITI,poldrack-single-stim,162,252954,0.0-6.0-102.0,go_nogo_deval,421,,<div></div>,32,1400,test,,,,,,,,,,,,-1,-1,500,0,fixation,poldrack-single-stim,163,253456,0.0-6.0-103.0,go_nogo_deval,421,,<div class = centerbox><div class = fixation>+</div></div>,none,500,test,,,,,,,,,,,,-1,-1,850,0,stim,poldrack-single-stim,164,254308,0.0-6.0-104.0,go_nogo_deval,421,,<img class = center src='/static/experiments/go_nogo_deval/images/green_pentagon.png'></img>,32,850,test,green_pentagon,nogo1,-1,34,0,,,,,,,-1,-1,1400,0,ITI,poldrack-single-stim,165,255710,0.0-6.0-105.0,go_nogo_deval,421,,<div></div>,32,1400,test,,,,,,,,,,,,-1,-1,500,0,fixation,poldrack-single-stim,166,256211,0.0-6.0-106.0,go_nogo_deval,421,,<div class = centerbox><div class = fixation>+</div></div>,none,500,test,,,,,,,,,,,,486,32,850,0,stim,poldrack-single-stim,167,257063,0.0-6.0-107.0,go_nogo_deval,421,,<img class = center src='/static/experiments/go_nogo_deval/images/purple_circle.png'></img>,32,850,test,purple_circle,go2,32,35,0,,,,,,,-1,-1,1400,0,ITI,poldrack-single-stim,168,258465,0.0-6.0-108.0,go_nogo_deval,421,,<div></div>,32,1400,test,,,,,,,,,,,,-1,-1,500,0,fixation,poldrack-single-stim,169,258967,0.0-6.0-109.0,go_nogo_deval,421,,<div class = centerbox><div class = fixation>+</div></div>,none,500,test,,,,,,,,,,,,351,32,850,0,stim,poldrack-single-stim,170,259818,0.0-6.0-110.0,go_nogo_deval,421,,<img class = center src='/static/experiments/go_nogo_deval/images/purple_circle.png'></img>,32,850,test,purple_circle,go2,32,36,0,,,,,,,-1,-1,1400,0,ITI,poldrack-single-stim,171,261220,0.0-6.0-111.0,go_nogo_deval,421,,<div></div>,32,1400,test,,,,,,,,,,,,-1,-1,500,0,fixation,poldrack-single-stim,172,261721,0.0-6.0-112.0,go_nogo_deval,421,,<div class = centerbox><div class = fixation>+</div></div>,none,500,test,,,,,,,,,,,,354,32,850,0,stim,poldrack-single-stim,173,262573,0.0-6.0-113.0,go_nogo_deval,421,,<img class = center src='/static/experiments/go_nogo_deval/images/purple_circle.png'></img>,32,850,test,purple_circle,go2,32,37,0,,,,,,,-1,-1,1400,0,ITI,poldrack-single-stim,174,263974,0.0-6.0-114.0,go_nogo_deval,421,,<div></div>,32,1400,test,,,,,,,,,,,,-1,-1,500,0,fixation,poldrack-single-stim,175,264476,0.0-6.0-115.0,go_nogo_deval,421,,<div class = centerbox><div class = fixation>+</div></div>,none,500,test,,,,,,,,,,,,400,32,850,0,stim,poldrack-single-stim,176,265327,0.0-6.0-116.0,go_nogo_deval,421,,<img class = center src='/static/experiments/go_nogo_deval/images/purple_circle.png'></img>,32,850,test,purple_circle,go2,32,38,0,,,,,,,-1,-1,1400,0,ITI,poldrack-single-stim,177,266728,0.0-6.0-117.0,go_nogo_deval,421,,<div></div>,32,1400,test,,,,,,,,,,,,-1,-1,500,0,fixation,poldrack-single-stim,178,267230,0.0-6.0-118.0,go_nogo_deval,421,,<div class = centerbox><div class = fixation>+</div></div>,none,500,test,,,,,,,,,,,,447,32,850,0,stim,poldrack-single-stim,179,268082,0.0-6.0-119.0,go_nogo_deval,421,,<img class = center src='/static/experiments/go_nogo_deval/images/red_rhombus.png'></img>,32,850,test,red_rhombus,go1,32,39,0,,,,,,,-1,-1,1400,0,ITI,poldrack-single-stim,180,269484,0.0-6.0-120.0,go_nogo_deval,421,,<div></div>,32,1400,test,,,,,,,,,,,,-1,-1,500,0,fixation,poldrack-single-stim,181,269986,0.0-6.0-121.0,go_nogo_deval,421,,<div class = centerbox><div class = fixation>+</div></div>,none,500,test,,,,,,,,,,,,335,32,850,0,stim,poldrack-single-stim,182,270838,0.0-6.0-122.0,go_nogo_deval,421,,<img class = center src='/static/experiments/go_nogo_deval/images/red_rhombus.png'></img>,32,850,test,red_rhombus,go1,32,40,0,,,,,,,-1,-1,1400,0,ITI,poldrack-single-stim,183,272240,0.0-6.0-123.0,go_nogo_deval,421,,<div></div>,32,1400,test,,,,,,,,,,,,-1,-1,500,0,fixation,poldrack-single-stim,184,272741,0.0-6.0-124.0,go_nogo_deval,421,,<div class = centerbox><div class = fixation>+</div></div>,none,500,test,,,,,,,,,,,,324,32,850,0,stim,poldrack-single-stim,185,273592,0.0-6.0-125.0,go_nogo_deval,421,,<img class = center src='/static/experiments/go_nogo_deval/images/red_rhombus.png'></img>,32,850,test,red_rhombus,go1,32,41,0,,,,,,,-1,-1,1400,0,ITI,poldrack-single-stim,186,274994,0.0-6.0-126.0,go_nogo_deval,421,,<div></div>,32,1400,test,,,,,,,,,,,,-1,-1,500,0,fixation,poldrack-single-stim,187,275496,0.0-6.0-127.0,go_nogo_deval,421,,<div class = centerbox><div class = fixation>+</div></div>,none,500,test,,,,,,,,,,,,371,32,850,0,stim,poldrack-single-stim,188,276348,0.0-6.0-128.0,go_nogo_deval,421,,<img class = center src='/static/experiments/go_nogo_deval/images/blue_triangle.png'></img>,32,850,test,blue_triangle,nogo2,-1,42,0,,,,,,,-1,-1,1400,0,ITI,poldrack-single-stim,189,277749,0.0-6.0-129.0,go_nogo_deval,421,,<div></div>,32,1400,test,,,,,,,,,,,,-1,-1,500,0,fixation,poldrack-single-stim,190,278251,0.0-6.0-130.0,go_nogo_deval,421,,<div class = centerbox><div class = fixation>+</div></div>,none,500,test,,,,,,,,,,,,350,32,850,0,stim,poldrack-single-stim,191,279102,0.0-6.0-131.0,go_nogo_deval,421,,<img class = center src='/static/experiments/go_nogo_deval/images/red_rhombus.png'></img>,32,850,test,red_rhombus,go1,32,43,0,,,,,,,-1,-1,1400,0,ITI,poldrack-single-stim,192,280504,0.0-6.0-132.0,go_nogo_deval,421,,<div></div>,32,1400,test,,,,,,,,,,,,-1,-1,500,0,fixation,poldrack-single-stim,193,281005,0.0-6.0-133.0,go_nogo_deval,421,,<div class = centerbox><div class = fixation>+</div></div>,none,500,test,,,,,,,,,,,,352,32,850,0,stim,poldrack-single-stim,194,281857,0.0-6.0-134.0,go_nogo_deval,421,,<img class = center src='/static/experiments/go_nogo_deval/images/red_rhombus.png'></img>,32,850,test,red_rhombus,go1,32,44,0,,,,,,,-1,-1,1400,0,ITI,poldrack-single-stim,195,283259,0.0-6.0-135.0,go_nogo_deval,421,,<div></div>,32,1400,test,,,,,,,,,,,,-1,-1,500,0,fixation,poldrack-single-stim,196,283761,0.0-6.0-136.0,go_nogo_deval,421,,<div class = centerbox><div class = fixation>+</div></div>,none,500,test,,,,,,,,,,,,-1,-1,850,0,stim,poldrack-single-stim,197,284613,0.0-6.0-137.0,go_nogo_deval,421,,<img class = center src='/static/experiments/go_nogo_deval/images/blue_triangle.png'></img>,32,850,test,blue_triangle,nogo2,-1,45,0,,,,,,,-1,-1,1400,0,ITI,poldrack-single-stim,198,286015,0.0-6.0-138.0,go_nogo_deval,421,,<div></div>,32,1400,test,,,,,,,,,,,,-1,-1,500,0,fixation,poldrack-single-stim,199,286516,0.0-6.0-139.0,go_nogo_deval,421,,<div class = centerbox><div class = fixation>+</div></div>,none,500,test,,,,,,,,,,,,-1,-1,850,0,stim,poldrack-single-stim,200,287367,0.0-6.0-140.0,go_nogo_deval,421,,<img class = center src='/static/experiments/go_nogo_deval/images/green_pentagon.png'></img>,32,850,test,green_pentagon,nogo1,-1,46,0,,,,,,,-1,-1,1400,0,ITI,poldrack-single-stim,201,288769,0.0-6.0-141.0,go_nogo_deval,421,,<div></div>,32,1400,test,,,,,,,,,,,,-1,-1,500,0,fixation,poldrack-single-stim,202,289271,0.0-6.0-142.0,go_nogo_deval,421,,<div class = centerbox><div class = fixation>+</div></div>,none,500,test,,,,,,,,,,,,412,32,850,0,stim,poldrack-single-stim,203,290123,0.0-6.0-143.0,go_nogo_deval,421,,<img class = center src='/static/experiments/go_nogo_deval/images/purple_circle.png'></img>,32,850,test,purple_circle,go2,32,47,0,,,,,,,-1,-1,1400,0,ITI,poldrack-single-stim,204,291523,0.0-6.0-144.0,go_nogo_deval,421,,<div></div>,32,1400,test,,,,,,,,,,,,3286,13,3286,0,practice-no-stop-feedback,poldrack-single-stim,205,294813,0.0-6.1-0.1,go_nogo_deval,421,,<div class = centerbox><p class = block-text><br>Please take this time to read your feedback and to take a short break! Press enter to continue</p><p class = block-text><strong>Average reaction time:  388 ms. Accuracy: 98%</strong></p></div>,13,3286,,,,,,,,,,,,,-1,-1,500,0,fixation,poldrack-single-stim,206,295314,0.0-6.1-1.1,go_nogo_deval,421,,<div class = centerbox><div class = fixation>+</div></div>,none,500,test,,,,,,,,,,,,443,32,850,0,stim,poldrack-single-stim,207,296165,0.0-6.1-2.1,go_nogo_deval,421,,<img class = center src='/static/experiments/go_nogo_deval/images/red_rhombus.png'></img>,32,850,test,red_rhombus,go1,32,0,1,,,,,,,-1,-1,1400,0,ITI,poldrack-single-stim,208,297566,0.0-6.1-3.1,go_nogo_deval,421,,<div></div>,32,1400,test,,,,,,,,,,,,-1,-1,500,0,fixation,poldrack-single-stim,209,298068,0.0-6.1-4.1,go_nogo_deval,421,,<div class = centerbox><div class = fixation>+</div></div>,none,500,test,,,,,,,,,,,,356,32,850,0,stim,poldrack-single-stim,210,298920,0.0-6.1-5.1,go_nogo_deval,421,,<img class = center src='/static/experiments/go_nogo_deval/images/purple_circle.png'></img>,32,850,test,purple_circle,go2,32,1,1,,,,,,,-1,-1,1400,0,ITI,poldrack-single-stim,211,300322,0.0-6.1-6.1,go_nogo_deval,421,,<div></div>,32,1400,test,,,,,,,,,,,,-1,-1,500,0,fixation,poldrack-single-stim,212,300822,0.0-6.1-7.1,go_nogo_deval,421,,<div class = centerbox><div class = fixation>+</div></div>,none,500,test,,,,,,,,,,,,402,32,850,0,stim,poldrack-single-stim,213,301674,0.0-6.1-8.1,go_nogo_deval,421,,<img class = center src='/static/experiments/go_nogo_deval/images/purple_circle.png'></img>,32,850,test,purple_circle,go2,32,2,1,,,,,,,-1,-1,1400,0,ITI,poldrack-single-stim,214,303075,0.0-6.1-9.1,go_nogo_deval,421,,<div></div>,32,1400,test,,,,,,,,,,,,-1,-1,500,0,fixation,poldrack-single-stim,215,303577,0.0-6.1-10.1,go_nogo_deval,421,,<div class = centerbox><div class = fixation>+</div></div>,none,500,test,,,,,,,,,,,,-1,-1,850,0,stim,poldrack-single-stim,216,304429,0.0-6.1-11.1,go_nogo_deval,421,,<img class = center src='/static/experiments/go_nogo_deval/images/blue_triangle.png'></img>,32,850,test,blue_triangle,nogo2,-1,3,1,,,,,,,-1,-1,1400,0,ITI,poldrack-single-stim,217,305830,0.0-6.1-12.1,go_nogo_deval,421,,<div></div>,32,1400,test,,,,,,,,,,,,-1,-1,500,0,fixation,poldrack-single-stim,218,306331,0.0-6.1-13.1,go_nogo_deval,421,,<div class = centerbox><div class = fixation>+</div></div>,none,500,test,,,,,,,,,,,,540,32,850,0,stim,poldrack-single-stim,219,307183,0.0-6.1-14.1,go_nogo_deval,421,,<img class = center src='/static/experiments/go_nogo_deval/images/red_rhombus.png'></img>,32,850,test,red_rhombus,go1,32,4,1,,,,,,,-1,-1,1400,0,ITI,poldrack-single-stim,220,308584,0.0-6.1-15.1,go_nogo_deval,421,,<div></div>,32,1400,test,,,,,,,,,,,,-1,-1,500,0,fixation,poldrack-single-stim,221,309084,0.0-6.1-16.1,go_nogo_deval,421,,<div class = centerbox><div class = fixation>+</div></div>,none,500,test,,,,,,,,,,,,-1,-1,850,0,stim,poldrack-single-stim,222,309936,0.0-6.1-17.1,go_nogo_deval,421,,<img class = center src='/static/experiments/go_nogo_deval/images/green_pentagon.png'></img>,32,850,test,green_pentagon,nogo1,-1,5,1,,,,,,,-1,-1,1400,0,ITI,poldrack-single-stim,223,311337,0.0-6.1-18.1,go_nogo_deval,421,,<div></div>,32,1400,test,,,,,,,,,,,,-1,-1,500,0,fixation,poldrack-single-stim,224,311839,0.0-6.1-19.1,go_nogo_deval,421,,<div class = centerbox><div class = fixation>+</div></div>,none,500,test,,,,,,,,,,,,-1,-1,850,0,stim,poldrack-single-stim,225,312691,0.0-6.1-20.1,go_nogo_deval,421,,<img class = center src='/static/experiments/go_nogo_deval/images/green_pentagon.png'></img>,32,850,test,green_pentagon,nogo1,-1,6,1,,,,,,,-1,-1,1400,0,ITI,poldrack-single-stim,226,314092,0.0-6.1-21.1,go_nogo_deval,421,,<div></div>,32,1400,test,,,,,,,,,,,,-1,-1,500,0,fixation,poldrack-single-stim,227,314594,0.0-6.1-22.1,go_nogo_deval,421,,<div class = centerbox><div class = fixation>+</div></div>,none,500,test,,,,,,,,,,,,379,32,850,0,stim,poldrack-single-stim,228,315445,0.0-6.1-23.1,go_nogo_deval,421,,<img class = center src='/static/experiments/go_nogo_deval/images/purple_circle.png'></img>,32,850,test,purple_circle,go2,32,7,1,,,,,,,-1,-1,1400,0,ITI,poldrack-single-stim,229,316847,0.0-6.1-24.1,go_nogo_deval,421,,<div></div>,32,1400,test,,,,,,,,,,,,-1,-1,500,0,fixation,poldrack-single-stim,230,317349,0.0-6.1-25.1,go_nogo_deval,421,,<div class = centerbox><div class = fixation>+</div></div>,none,500,test,,,,,,,,,,,,-1,-1,850,0,stim,poldrack-single-stim,231,318200,0.0-6.1-26.1,go_nogo_deval,421,,<img class = center src='/static/experiments/go_nogo_deval/images/green_pentagon.png'></img>,32,850,test,green_pentagon,nogo1,-1,8,1,,,,,,,-1,-1,1400,0,ITI,poldrack-single-stim,232,319601,0.0-6.1-27.1,go_nogo_deval,421,,<div></div>,32,1400,test,,,,,,,,,,,,-1,-1,500,0,fixation,poldrack-single-stim,233,320103,0.0-6.1-28.1,go_nogo_deval,421,,<div class = centerbox><div class = fixation>+</div></div>,none,500,test,,,,,,,,,,,,472,32,850,0,stim,poldrack-single-stim,234,320955,0.0-6.1-29.1,go_nogo_deval,421,,<img class = center src='/static/experiments/go_nogo_deval/images/red_rhombus.png'></img>,32,850,test,red_rhombus,go1,32,9,1,,,,,,,-1,-1,1400,0,ITI,poldrack-single-stim,235,322357,0.0-6.1-30.1,go_nogo_deval,421,,<div></div>,32,1400,test,,,,,,,,,,,,-1,-1,500,0,fixation,poldrack-single-stim,236,322857,0.0-6.1-31.1,go_nogo_deval,421,,<div class = centerbox><div class = fixation>+</div></div>,none,500,test,,,,,,,,,,,,-1,-1,850,0,stim,poldrack-single-stim,237,323709,0.0-6.1-32.1,go_nogo_deval,421,,<img class = center src='/static/experiments/go_nogo_deval/images/green_pentagon.png'></img>,32,850,test,green_pentagon,nogo1,-1,10,1,,,,,,,-1,-1,1400,0,ITI,poldrack-single-stim,238,325111,0.0-6.1-33.1,go_nogo_deval,421,,<div></div>,32,1400,test,,,,,,,,,,,,-1,-1,500,0,fixation,poldrack-single-stim,239,325612,0.0-6.1-34.1,go_nogo_deval,421,,<div class = centerbox><div class = fixation>+</div></div>,none,500,test,,,,,,,,,,,,364,32,850,0,stim,poldrack-single-stim,240,326464,0.0-6.1-35.1,go_nogo_deval,421,,<img class = center src='/static/experiments/go_nogo_deval/images/purple_circle.png'></img>,32,850,test,purple_circle,go2,32,11,1,,,,,,,-1,-1,1400,0,ITI,poldrack-single-stim,241,327866,0.0-6.1-36.1,go_nogo_deval,421,,<div></div>,32,1400,test,,,,,,,,,,,,-1,-1,500,0,fixation,poldrack-single-stim,242,328367,0.0-6.1-37.1,go_nogo_deval,421,,<div class = centerbox><div class = fixation>+</div></div>,none,500,test,,,,,,,,,,,,-1,-1,850,0,stim,poldrack-single-stim,243,329219,0.0-6.1-38.1,go_nogo_deval,421,,<img class = center src='/static/experiments/go_nogo_deval/images/blue_triangle.png'></img>,32,850,test,blue_triangle,nogo2,-1,12,1,,,,,,,-1,-1,1400,0,ITI,poldrack-single-stim,244,330621,0.0-6.1-39.1,go_nogo_deval,421,,<div></div>,32,1400,test,,,,,,,,,,,,-1,-1,500,0,fixation,poldrack-single-stim,245,331123,0.0-6.1-40.1,go_nogo_deval,421,,<div class = centerbox><div class = fixation>+</div></div>,none,500,test,,,,,,,,,,,,364,32,850,0,stim,poldrack-single-stim,246,331975,0.0-6.1-41.1,go_nogo_deval,421,,<img class = center src='/static/experiments/go_nogo_deval/images/purple_circle.png'></img>,32,850,test,purple_circle,go2,32,13,1,,,,,,,-1,-1,1400,0,ITI,poldrack-single-stim,247,333377,0.0-6.1-42.1,go_nogo_deval,421,,<div></div>,32,1400,test,,,,,,,,,,,,-1,-1,500,0,fixation,poldrack-single-stim,248,333878,0.0-6.1-43.1,go_nogo_deval,421,,<div class = centerbox><div class = fixation>+</div></div>,none,500,test,,,,,,,,,,,,455,32,850,0,stim,poldrack-single-stim,249,334730,0.0-6.1-44.1,go_nogo_deval,421,,<img class = center src='/static/experiments/go_nogo_deval/images/purple_circle.png'></img>,32,850,test,purple_circle,go2,32,14,1,,,,,,,-1,-1,1400,0,ITI,poldrack-single-stim,250,336132,0.0-6.1-45.1,go_nogo_deval,421,,<div></div>,32,1400,test,,,,,,,,,,,,-1,-1,500,0,fixation,poldrack-single-stim,251,336633,0.0-6.1-46.1,go_nogo_deval,421,,<div class = centerbox><div class = fixation>+</div></div>,none,500,test,,,,,,,,,,,,333,32,850,0,stim,poldrack-single-stim,252,337485,0.0-6.1-47.1,go_nogo_deval,421,,<img class = center src='/static/experiments/go_nogo_deval/images/purple_circle.png'></img>,32,850,test,purple_circle,go2,32,15,1,,,,,,,-1,-1,1400,0,ITI,poldrack-single-stim,253,338887,0.0-6.1-48.1,go_nogo_deval,421,,<div></div>,32,1400,test,,,,,,,,,,,,-1,-1,500,0,fixation,poldrack-single-stim,254,339388,0.0-6.1-49.1,go_nogo_deval,421,,<div class = centerbox><div class = fixation>+</div></div>,none,500,test,,,,,,,,,,,,290,32,850,0,stim,poldrack-single-stim,255,340239,0.0-6.1-50.1,go_nogo_deval,421,,<img class = center src='/static/experiments/go_nogo_deval/images/red_rhombus.png'></img>,32,850,test,red_rhombus,go1,32,16,1,,,,,,,-1,-1,1400,0,ITI,poldrack-single-stim,256,341641,0.0-6.1-51.1,go_nogo_deval,421,,<div></div>,32,1400,test,,,,,,,,,,,,-1,-1,500,0,fixation,poldrack-single-stim,257,342142,0.0-6.1-52.1,go_nogo_deval,421,,<div class = centerbox><div class = fixation>+</div></div>,none,500,test,,,,,,,,,,,,-1,-1,850,0,stim,poldrack-single-stim,258,342994,0.0-6.1-53.1,go_nogo_deval,421,,<img class = center src='/static/experiments/go_nogo_deval/images/green_pentagon.png'></img>,32,850,test,green_pentagon,nogo1,-1,17,1,,,,,,,-1,-1,1400,0,ITI,poldrack-single-stim,259,344396,0.0-6.1-54.1,go_nogo_deval,421,,<div></div>,32,1400,test,,,,,,,,,,,,-1,-1,500,0,fixation,poldrack-single-stim,260,344898,0.0-6.1-55.1,go_nogo_deval,421,,<div class = centerbox><div class = fixation>+</div></div>,none,500,test,,,,,,,,,,,,-1,-1,850,0,stim,poldrack-single-stim,261,345748,0.0-6.1-56.1,go_nogo_deval,421,,<img class = center src='/static/experiments/go_nogo_deval/images/green_pentagon.png'></img>,32,850,test,green_pentagon,nogo1,-1,18,1,,,,,,,-1,-1,1400,0,ITI,poldrack-single-stim,262,347150,0.0-6.1-57.1,go_nogo_deval,421,,<div></div>,32,1400,test,,,,,,,,,,,,-1,-1,500,0,fixation,poldrack-single-stim,263,347652,0.0-6.1-58.1,go_nogo_deval,421,,<div class = centerbox><div class = fixation>+</div></div>,none,500,test,,,,,,,,,,,,317,32,850,0,stim,poldrack-single-stim,264,348503,0.0-6.1-59.1,go_nogo_deval,421,,<img class = center src='/static/experiments/go_nogo_deval/images/red_rhombus.png'></img>,32,850,test,red_rhombus,go1,32,19,1,,,,,,,-1,-1,1400,0,ITI,poldrack-single-stim,265,349905,0.0-6.1-60.1,go_nogo_deval,421,,<div></div>,32,1400,test,,,,,,,,,,,,-1,-1,500,0,fixation,poldrack-single-stim,266,350405,0.0-6.1-61.1,go_nogo_deval,421,,<div class = centerbox><div class = fixation>+</div></div>,none,500,test,,,,,,,,,,,,-1,-1,850,0,stim,poldrack-single-stim,267,351257,0.0-6.1-62.1,go_nogo_deval,421,,<img class = center src='/static/experiments/go_nogo_deval/images/blue_triangle.png'></img>,32,850,test,blue_triangle,nogo2,-1,20,1,,,,,,,-1,-1,1400,0,ITI,poldrack-single-stim,268,352659,0.0-6.1-63.1,go_nogo_deval,421,,<div></div>,32,1400,test,,,,,,,,,,,,-1,-1,500,0,fixation,poldrack-single-stim,269,353160,0.0-6.1-64.1,go_nogo_deval,421,,<div class = centerbox><div class = fixation>+</div></div>,none,500,test,,,,,,,,,,,,344,32,850,0,stim,poldrack-single-stim,270,354011,0.0-6.1-65.1,go_nogo_deval,421,,<img class = center src='/static/experiments/go_nogo_deval/images/red_rhombus.png'></img>,32,850,test,red_rhombus,go1,32,21,1,,,,,,,-1,-1,1400,0,ITI,poldrack-single-stim,271,355413,0.0-6.1-66.1,go_nogo_deval,421,,<div></div>,32,1400,test,,,,,,,,,,,,-1,-1,500,0,fixation,poldrack-single-stim,272,355915,0.0-6.1-67.1,go_nogo_deval,421,,<div class = centerbox><div class = fixation>+</div></div>,none,500,test,,,,,,,,,,,,-1,-1,850,0,stim,poldrack-single-stim,273,356767,0.0-6.1-68.1,go_nogo_deval,421,,<img class = center src='/static/experiments/go_nogo_deval/images/blue_triangle.png'></img>,32,850,test,blue_triangle,nogo2,-1,22,1,,,,,,,-1,-1,1400,0,ITI,poldrack-single-stim,274,358168,0.0-6.1-69.1,go_nogo_deval,421,,<div></div>,32,1400,test,,,,,,,,,,,,-1,-1,500,0,fixation,poldrack-single-stim,275,358668,0.0-6.1-70.1,go_nogo_deval,421,,<div class = centerbox><div class = fixation>+</div></div>,none,500,test,,,,,,,,,,,,359,32,850,0,stim,poldrack-single-stim,276,359520,0.0-6.1-71.1,go_nogo_deval,421,,<img class = center src='/static/experiments/go_nogo_deval/images/red_rhombus.png'></img>,32,850,test,red_rhombus,go1,32,23,1,,,,,,,-1,-1,1400,0,ITI,poldrack-single-stim,277,360922,0.0-6.1-72.1,go_nogo_deval,421,,<div></div>,32,1400,test,,,,,,,,,,,,-1,-1,500,0,fixation,poldrack-single-stim,278,361423,0.0-6.1-73.1,go_nogo_deval,421,,<div class = centerbox><div class = fixation>+</div></div>,none,500,test,,,,,,,,,,,,484,32,850,0,stim,poldrack-single-stim,279,362275,0.0-6.1-74.1,go_nogo_deval,421,,<img class = center src='/static/experiments/go_nogo_deval/images/purple_circle.png'></img>,32,850,test,purple_circle,go2,32,24,1,,,,,,,-1,-1,1400,0,ITI,poldrack-single-stim,280,363676,0.0-6.1-75.1,go_nogo_deval,421,,<div></div>,32,1400,test,,,,,,,,,,,,-1,-1,500,0,fixation,poldrack-single-stim,281,364178,0.0-6.1-76.1,go_nogo_deval,421,,<div class = centerbox><div class = fixation>+</div></div>,none,500,test,,,,,,,,,,,,374,32,850,0,stim,poldrack-single-stim,282,365029,0.0-6.1-77.1,go_nogo_deval,421,,<img class = center src='/static/experiments/go_nogo_deval/images/red_rhombus.png'></img>,32,850,test,red_rhombus,go1,32,25,1,,,,,,,-1,-1,1400,0,ITI,poldrack-single-stim,283,366430,0.0-6.1-78.1,go_nogo_deval,421,,<div></div>,32,1400,test,,,,,,,,,,,,-1,-1,500,0,fixation,poldrack-single-stim,284,366932,0.0-6.1-79.1,go_nogo_deval,421,,<div class = centerbox><div class = fixation>+</div></div>,none,500,test,,,,,,,,,,,,375,32,850,0,stim,poldrack-single-stim,285,367784,0.0-6.1-80.1,go_nogo_deval,421,,<img class = center src='/static/experiments/go_nogo_deval/images/red_rhombus.png'></img>,32,850,test,red_rhombus,go1,32,26,1,,,,,,,-1,-1,1400,0,ITI,poldrack-single-stim,286,369185,0.0-6.1-81.1,go_nogo_deval,421,,<div></div>,32,1400,test,,,,,,,,,,,,-1,-1,500,0,fixation,poldrack-single-stim,287,369687,0.0-6.1-82.1,go_nogo_deval,421,,<div class = centerbox><div class = fixation>+</div></div>,none,500,test,,,,,,,,,,,,367,32,850,0,stim,poldrack-single-stim,288,370539,0.0-6.1-83.1,go_nogo_deval,421,,<img class = center src='/static/experiments/go_nogo_deval/images/red_rhombus.png'></img>,32,850,test,red_rhombus,go1,32,27,1,,,,,,,-1,-1,1400,0,ITI,poldrack-single-stim,289,371940,0.0-6.1-84.1,go_nogo_deval,421,,<div></div>,32,1400,test,,,,,,,,,,,,-1,-1,500,0,fixation,poldrack-single-stim,290,372441,0.0-6.1-85.1,go_nogo_deval,421,,<div class = centerbox><div class = fixation>+</div></div>,none,500,test,,,,,,,,,,,,-1,-1,850,0,stim,poldrack-single-stim,291,373293,0.0-6.1-86.1,go_nogo_deval,421,,<img class = center src='/static/experiments/go_nogo_deval/images/blue_triangle.png'></img>,32,850,test,blue_triangle,nogo2,-1,28,1,,,,,,,-1,-1,1400,0,ITI,poldrack-single-stim,292,374695,0.0-6.1-87.1,go_nogo_deval,421,,<div></div>,32,1400,test,,,,,,,,,,,,-1,-1,500,0,fixation,poldrack-single-stim,293,375197,0.0-6.1-88.1,go_nogo_deval,421,,<div class = centerbox><div class = fixation>+</div></div>,none,500,test,,,,,,,,,,,,-1,-1,850,0,stim,poldrack-single-stim,294,376049,0.0-6.1-89.1,go_nogo_deval,421,,<img class = center src='/static/experiments/go_nogo_deval/images/blue_triangle.png'></img>,32,850,test,blue_triangle,nogo2,-1,29,1,,,,,,,-1,-1,1400,0,ITI,poldrack-single-stim,295,377451,0.0-6.1-90.1,go_nogo_deval,421,,<div></div>,32,1400,test,,,,,,,,,,,,-1,-1,500,0,fixation,poldrack-single-stim,296,377953,0.0-6.1-91.1,go_nogo_deval,421,,<div class = centerbox><div class = fixation>+</div></div>,none,500,test,,,,,,,,,,,,403,32,850,0,stim,poldrack-single-stim,297,378803,0.0-6.1-92.1,go_nogo_deval,421,,<img class = center src='/static/experiments/go_nogo_deval/images/red_rhombus.png'></img>,32,850,test,red_rhombus,go1,32,30,1,,,,,,,-1,-1,1400,0,ITI,poldrack-single-stim,298,380205,0.0-6.1-93.1,go_nogo_deval,421,,<div></div>,32,1400,test,,,,,,,,,,,,-1,-1,500,0,fixation,poldrack-single-stim,299,380707,0.0-6.1-94.1,go_nogo_deval,421,,<div class = centerbox><div class = fixation>+</div></div>,none,500,test,,,,,,,,,,,,462,32,850,0,stim,poldrack-single-stim,300,381559,0.0-6.1-95.1,go_nogo_deval,421,,<img class = center src='/static/experiments/go_nogo_deval/images/purple_circle.png'></img>,32,850,test,purple_circle,go2,32,31,1,,,,,,,-1,-1,1400,0,ITI,poldrack-single-stim,301,382960,0.0-6.1-96.1,go_nogo_deval,421,,<div></div>,32,1400,test,,,,,,,,,,,,-1,-1,500,0,fixation,poldrack-single-stim,302,383461,0.0-6.1-97.1,go_nogo_deval,421,,<div class = centerbox><div class = fixation>+</div></div>,none,500,test,,,,,,,,,,,,451,32,850,0,stim,poldrack-single-stim,303,384313,0.0-6.1-98.1,go_nogo_deval,421,,<img class = center src='/static/experiments/go_nogo_deval/images/purple_circle.png'></img>,32,850,test,purple_circle,go2,32,32,1,,,,,,,-1,-1,1400,0,ITI,poldrack-single-stim,304,385715,0.0-6.1-99.1,go_nogo_deval,421,,<div></div>,32,1400,test,,,,,,,,,,,,-1,-1,500,0,fixation,poldrack-single-stim,305,386216,0.0-6.1-100.1,go_nogo_deval,421,,<div class = centerbox><div class = fixation>+</div></div>,none,500,test,,,,,,,,,,,,-1,-1,850,0,stim,poldrack-single-stim,306,387068,0.0-6.1-101.1,go_nogo_deval,421,,<img class = center src='/static/experiments/go_nogo_deval/images/blue_triangle.png'></img>,32,850,test,blue_triangle,nogo2,-1,33,1,,,,,,,-1,-1,1400,0,ITI,poldrack-single-stim,307,388468,0.0-6.1-102.1,go_nogo_deval,421,,<div></div>,32,1400,test,,,,,,,,,,,,-1,-1,500,0,fixation,poldrack-single-stim,308,388969,0.0-6.1-103.1,go_nogo_deval,421,,<div class = centerbox><div class = fixation>+</div></div>,none,500,test,,,,,,,,,,,,355,32,850,0,stim,poldrack-single-stim,309,389821,0.0-6.1-104.1,go_nogo_deval,421,,<img class = center src='/static/experiments/go_nogo_deval/images/purple_circle.png'></img>,32,850,test,purple_circle,go2,32,34,1,,,,,,,-1,-1,1400,0,ITI,poldrack-single-stim,310,391222,0.0-6.1-105.1,go_nogo_deval,421,,<div></div>,32,1400,test,,,,,,,,,,,,-1,-1,500,0,fixation,poldrack-single-stim,311,391724,0.0-6.1-106.1,go_nogo_deval,421,,<div class = centerbox><div class = fixation>+</div></div>,none,500,test,,,,,,,,,,,,345,32,850,0,stim,poldrack-single-stim,312,392576,0.0-6.1-107.1,go_nogo_deval,421,,<img class = center src='/static/experiments/go_nogo_deval/images/red_rhombus.png'></img>,32,850,test,red_rhombus,go1,32,35,1,,,,,,,-1,-1,1400,0,ITI,poldrack-single-stim,313,393977,0.0-6.1-108.1,go_nogo_deval,421,,<div></div>,32,1400,test,,,,,,,,,,,,-1,-1,500,0,fixation,poldrack-single-stim,314,394479,0.0-6.1-109.1,go_nogo_deval,421,,<div class = centerbox><div class = fixation>+</div></div>,none,500,test,,,,,,,,,,,,324,32,850,0,stim,poldrack-single-stim,315,395330,0.0-6.1-110.1,go_nogo_deval,421,,<img class = center src='/static/experiments/go_nogo_deval/images/purple_circle.png'></img>,32,850,test,purple_circle,go2,32,36,1,,,,,,,-1,-1,1400,0,ITI,poldrack-single-stim,316,396731,0.0-6.1-111.1,go_nogo_deval,421,,<div></div>,32,1400,test,,,,,,,,,,,,-1,-1,500,0,fixation,poldrack-single-stim,317,397233,0.0-6.1-112.1,go_nogo_deval,421,,<div class = centerbox><div class = fixation>+</div></div>,none,500,test,,,,,,,,,,,,-1,-1,850,0,stim,poldrack-single-stim,318,398085,0.0-6.1-113.1,go_nogo_deval,421,,<img class = center src='/static/experiments/go_nogo_deval/images/blue_triangle.png'></img>,32,850,test,blue_triangle,nogo2,-1,37,1,,,,,,,-1,-1,1400,0,ITI,poldrack-single-stim,319,399487,0.0-6.1-114.1,go_nogo_deval,421,,<div></div>,32,1400,test,,,,,,,,,,,,-1,-1,500,0,fixation,poldrack-single-stim,320,399989,0.0-6.1-115.1,go_nogo_deval,421,,<div class = centerbox><div class = fixation>+</div></div>,none,500,test,,,,,,,,,,,,361,32,850,0,stim,poldrack-single-stim,321,400840,0.0-6.1-116.1,go_nogo_deval,421,,<img class = center src='/static/experiments/go_nogo_deval/images/purple_circle.png'></img>,32,850,test,purple_circle,go2,32,38,1,,,,,,,-1,-1,1400,0,ITI,poldrack-single-stim,322,402242,0.0-6.1-117.1,go_nogo_deval,421,,<div></div>,32,1400,test,,,,,,,,,,,,-1,-1,500,0,fixation,poldrack-single-stim,323,402744,0.0-6.1-118.1,go_nogo_deval,421,,<div class = centerbox><div class = fixation>+</div></div>,none,500,test,,,,,,,,,,,,-1,-1,850,0,stim,poldrack-single-stim,324,403595,0.0-6.1-119.1,go_nogo_deval,421,,<img class = center src='/static/experiments/go_nogo_deval/images/green_pentagon.png'></img>,32,850,test,green_pentagon,nogo1,-1,39,1,,,,,,,-1,-1,1400,0,ITI,poldrack-single-stim,325,404996,0.0-6.1-120.1,go_nogo_deval,421,,<div></div>,32,1400,test,,,,,,,,,,,,-1,-1,500,0,fixation,poldrack-single-stim,326,405498,0.0-6.1-121.1,go_nogo_deval,421,,<div class = centerbox><div class = fixation>+</div></div>,none,500,test,,,,,,,,,,,,296,32,850,0,stim,poldrack-single-stim,327,406350,0.0-6.1-122.1,go_nogo_deval,421,,<img class = center src='/static/experiments/go_nogo_deval/images/purple_circle.png'></img>,32,850,test,purple_circle,go2,32,40,1,,,,,,,-1,-1,1400,0,ITI,poldrack-single-stim,328,407752,0.0-6.1-123.1,go_nogo_deval,421,,<div></div>,32,1400,test,,,,,,,,,,,,-1,-1,500,0,fixation,poldrack-single-stim,329,408253,0.0-6.1-124.1,go_nogo_deval,421,,<div class = centerbox><div class = fixation>+</div></div>,none,500,test,,,,,,,,,,,,364,32,850,0,stim,poldrack-single-stim,330,409104,0.0-6.1-125.1,go_nogo_deval,421,,<img class = center src='/static/experiments/go_nogo_deval/images/purple_circle.png'></img>,32,850,test,purple_circle,go2,32,41,1,,,,,,,-1,-1,1400,0,ITI,poldrack-single-stim,331,410506,0.0-6.1-126.1,go_nogo_deval,421,,<div></div>,32,1400,test,,,,,,,,,,,,-1,-1,500,0,fixation,poldrack-single-stim,332,411008,0.0-6.1-127.1,go_nogo_deval,421,,<div class = centerbox><div class = fixation>+</div></div>,none,500,test,,,,,,,,,,,,344,32,850,0,stim,poldrack-single-stim,333,411860,0.0-6.1-128.1,go_nogo_deval,421,,<img class = center src='/static/experiments/go_nogo_deval/images/purple_circle.png'></img>,32,850,test,purple_circle,go2,32,42,1,,,,,,,-1,-1,1400,0,ITI,poldrack-single-stim,334,413262,0.0-6.1-129.1,go_nogo_deval,421,,<div></div>,32,1400,test,,,,,,,,,,,,-1,-1,500,0,fixation,poldrack-single-stim,335,413763,0.0-6.1-130.1,go_nogo_deval,421,,<div class = centerbox><div class = fixation>+</div></div>,none,500,test,,,,,,,,,,,,389,32,850,0,stim,poldrack-single-stim,336,414616,0.0-6.1-131.1,go_nogo_deval,421,,<img class = center src='/static/experiments/go_nogo_deval/images/red_rhombus.png'></img>,32,850,test,red_rhombus,go1,32,43,1,,,,,,,-1,-1,1400,0,ITI,poldrack-single-stim,337,416018,0.0-6.1-132.1,go_nogo_deval,421,,<div></div>,32,1400,test,,,,,,,,,,,,-1,-1,500,0,fixation,poldrack-single-stim,338,416519,0.0-6.1-133.1,go_nogo_deval,421,,<div class = centerbox><div class = fixation>+</div></div>,none,500,test,,,,,,,,,,,,-1,-1,850,0,stim,poldrack-single-stim,339,417370,0.0-6.1-134.1,go_nogo_deval,421,,<img class = center src='/static/experiments/go_nogo_deval/images/green_pentagon.png'></img>,32,850,test,green_pentagon,nogo1,-1,44,1,,,,,,,-1,-1,1400,0,ITI,poldrack-single-stim,340,418772,0.0-6.1-135.1,go_nogo_deval,421,,<div></div>,32,1400,test,,,,,,,,,,,,-1,-1,500,0,fixation,poldrack-single-stim,341,419274,0.0-6.1-136.1,go_nogo_deval,421,,<div class = centerbox><div class = fixation>+</div></div>,none,500,test,,,,,,,,,,,,392,32,850,0,stim,poldrack-single-stim,342,420125,0.0-6.1-137.1,go_nogo_deval,421,,<img class = center src='/static/experiments/go_nogo_deval/images/red_rhombus.png'></img>,32,850,test,red_rhombus,go1,32,45,1,,,,,,,-1,-1,1400,0,ITI,poldrack-single-stim,343,421526,0.0-6.1-138.1,go_nogo_deval,421,,<div></div>,32,1400,test,,,,,,,,,,,,-1,-1,500,0,fixation,poldrack-single-stim,344,422028,0.0-6.1-139.1,go_nogo_deval,421,,<div class = centerbox><div class = fixation>+</div></div>,none,500,test,,,,,,,,,,,,372,32,850,0,stim,poldrack-single-stim,345,422879,0.0-6.1-140.1,go_nogo_deval,421,,<img class = center src='/static/experiments/go_nogo_deval/images/red_rhombus.png'></img>,32,850,test,red_rhombus,go1,32,46,1,,,,,,,-1,-1,1400,0,ITI,poldrack-single-stim,346,424280,0.0-6.1-141.1,go_nogo_deval,421,,<div></div>,32,1400,test,,,,,,,,,,,,-1,-1,500,0,fixation,poldrack-single-stim,347,424781,0.0-6.1-142.1,go_nogo_deval,421,,<div class = centerbox><div class = fixation>+</div></div>,none,500,test,,,,,,,,,,,,329,32,850,0,stim,poldrack-single-stim,348,425633,0.0-6.1-143.1,go_nogo_deval,421,,<img class = center src='/static/experiments/go_nogo_deval/images/red_rhombus.png'></img>,32,850,test,red_rhombus,go1,32,47,1,,,,,,,-1,-1,1400,0,ITI,poldrack-single-stim,349,427035,0.0-6.1-144.1,go_nogo_deval,421,,<div></div>,32,1400,test,,,,,,,,,,,,4385,13,4385,0,practice-no-stop-feedback,poldrack-single-stim,350,431423,0.0-6.2-0.2,go_nogo_deval,421,,<div class = centerbox><p class = block-text><br>Please take this time to read your feedback and to take a short break! Press enter to continue</p><p class = block-text><strong>Average reaction time:  381 ms. Accuracy: 100%</strong></p></div>,13,4385,,,,,,,,,,,,,-1,-1,500,0,fixation,poldrack-single-stim,351,431925,0.0-6.2-1.2,go_nogo_deval,421,,<div class = centerbox><div class = fixation>+</div></div>,none,500,test,,,,,,,,,,,,453,32,850,0,stim,poldrack-single-stim,352,432776,0.0-6.2-2.2,go_nogo_deval,421,,<img class = center src='/static/experiments/go_nogo_deval/images/purple_circle.png'></img>,32,850,test,purple_circle,go2,32,0,2,,,,,,,-1,-1,1400,0,ITI,poldrack-single-stim,353,434178,0.0-6.2-3.2,go_nogo_deval,421,,<div></div>,32,1400,test,,,,,,,,,,,,-1,-1,500,0,fixation,poldrack-single-stim,354,434679,0.0-6.2-4.2,go_nogo_deval,421,,<div class = centerbox><div class = fixation>+</div></div>,none,500,test,,,,,,,,,,,,-1,-1,850,0,stim,poldrack-single-stim,355,435531,0.0-6.2-5.2,go_nogo_deval,421,,<img class = center src='/static/experiments/go_nogo_deval/images/blue_triangle.png'></img>,32,850,test,blue_triangle,nogo2,-1,1,2,,,,,,,-1,-1,1400,0,ITI,poldrack-single-stim,356,436932,0.0-6.2-6.2,go_nogo_deval,421,,<div></div>,32,1400,test,,,,,,,,,,,,-1,-1,500,0,fixation,poldrack-single-stim,357,437434,0.0-6.2-7.2,go_nogo_deval,421,,<div class = centerbox><div class = fixation>+</div></div>,none,500,test,,,,,,,,,,,,311,32,850,0,stim,poldrack-single-stim,358,438284,0.0-6.2-8.2,go_nogo_deval,421,,<img class = center src='/static/experiments/go_nogo_deval/images/purple_circle.png'></img>,32,850,test,purple_circle,go2,32,2,2,,,,,,,-1,-1,1400,0,ITI,poldrack-single-stim,359,439686,0.0-6.2-9.2,go_nogo_deval,421,,<div></div>,32,1400,test,,,,,,,,,,,,-1,-1,500,0,fixation,poldrack-single-stim,360,440187,0.0-6.2-10.2,go_nogo_deval,421,,<div class = centerbox><div class = fixation>+</div></div>,none,500,test,,,,,,,,,,,,414,32,850,0,stim,poldrack-single-stim,361,441039,0.0-6.2-11.2,go_nogo_deval,421,,<img class = center src='/static/experiments/go_nogo_deval/images/green_pentagon.png'></img>,32,850,test,green_pentagon,nogo1,-1,3,2,,,,,,,-1,-1,1400,0,ITI,poldrack-single-stim,362,442440,0.0-6.2-12.2,go_nogo_deval,421,,<div></div>,32,1400,test,,,,,,,,,,,,-1,-1,500,0,fixation,poldrack-single-stim,363,442942,0.0-6.2-13.2,go_nogo_deval,421,,<div class = centerbox><div class = fixation>+</div></div>,none,500,test,,,,,,,,,,,,405,32,850,0,stim,poldrack-single-stim,364,443793,0.0-6.2-14.2,go_nogo_deval,421,,<img class = center src='/static/experiments/go_nogo_deval/images/purple_circle.png'></img>,32,850,test,purple_circle,go2,32,4,2,,,,,,,-1,-1,1400,0,ITI,poldrack-single-stim,365,445195,0.0-6.2-15.2,go_nogo_deval,421,,<div></div>,32,1400,test,,,,,,,,,,,,-1,-1,500,0,fixation,poldrack-single-stim,366,445697,0.0-6.2-16.2,go_nogo_deval,421,,<div class = centerbox><div class = fixation>+</div></div>,none,500,test,,,,,,,,,,,,-1,-1,850,0,stim,poldrack-single-stim,367,446549,0.0-6.2-17.2,go_nogo_deval,421,,<img class = center src='/static/experiments/go_nogo_deval/images/green_pentagon.png'></img>,32,850,test,green_pentagon,nogo1,-1,5,2,,,,,,,-1,-1,1400,0,ITI,poldrack-single-stim,368,447951,0.0-6.2-18.2,go_nogo_deval,421,,<div></div>,32,1400,test,,,,,,,,,,,,-1,-1,500,0,fixation,poldrack-single-stim,369,448452,0.0-6.2-19.2,go_nogo_deval,421,,<div class = centerbox><div class = fixation>+</div></div>,none,500,test,,,,,,,,,,,,294,32,850,0,stim,poldrack-single-stim,370,449304,0.0-6.2-20.2,go_nogo_deval,421,,<img class = center src='/static/experiments/go_nogo_deval/images/purple_circle.png'></img>,32,850,test,purple_circle,go2,32,6,2,,,,,,,-1,-1,1400,0,ITI,poldrack-single-stim,371,450707,0.0-6.2-21.2,go_nogo_deval,421,,<div></div>,32,1400,test,,,,,,,,,,,,-1,-1,500,0,fixation,poldrack-single-stim,372,451209,0.0-6.2-22.2,go_nogo_deval,421,,<div class = centerbox><div class = fixation>+</div></div>,none,500,test,,,,,,,,,,,,306,32,850,0,stim,poldrack-single-stim,373,452061,0.0-6.2-23.2,go_nogo_deval,421,,<img class = center src='/static/experiments/go_nogo_deval/images/purple_circle.png'></img>,32,850,test,purple_circle,go2,32,7,2,,,,,,,-1,-1,1400,0,ITI,poldrack-single-stim,374,453462,0.0-6.2-24.2,go_nogo_deval,421,,<div></div>,32,1400,test,,,,,,,,,,,,-1,-1,500,0,fixation,poldrack-single-stim,375,453963,0.0-6.2-25.2,go_nogo_deval,421,,<div class = centerbox><div class = fixation>+</div></div>,none,500,test,,,,,,,,,,,,-1,-1,850,0,stim,poldrack-single-stim,376,454815,0.0-6.2-26.2,go_nogo_deval,421,,<img class = center src='/static/experiments/go_nogo_deval/images/green_pentagon.png'></img>,32,850,test,green_pentagon,nogo1,-1,8,2,,,,,,,-1,-1,1400,0,ITI,poldrack-single-stim,377,456217,0.0-6.2-27.2,go_nogo_deval,421,,<div></div>,32,1400,test,,,,,,,,,,,,-1,-1,500,0,fixation,poldrack-single-stim,378,456719,0.0-6.2-28.2,go_nogo_deval,421,,<div class = centerbox><div class = fixation>+</div></div>,none,500,test,,,,,,,,,,,,343,32,850,0,stim,poldrack-single-stim,379,457571,0.0-6.2-29.2,go_nogo_deval,421,,<img class = center src='/static/experiments/go_nogo_deval/images/purple_circle.png'></img>,32,850,test,purple_circle,go2,32,9,2,,,,,,,-1,-1,1400,0,ITI,poldrack-single-stim,380,458972,0.0-6.2-30.2,go_nogo_deval,421,,<div></div>,32,1400,test,,,,,,,,,,,,-1,-1,500,0,fixation,poldrack-single-stim,381,459474,0.0-6.2-31.2,go_nogo_deval,421,,<div class = centerbox><div class = fixation>+</div></div>,none,500,test,,,,,,,,,,,,-1,-1,850,0,stim,poldrack-single-stim,382,460326,0.0-6.2-32.2,go_nogo_deval,421,,<img class = center src='/static/experiments/go_nogo_deval/images/green_pentagon.png'></img>,32,850,test,green_pentagon,nogo1,-1,10,2,,,,,,,-1,-1,1400,0,ITI,poldrack-single-stim,383,461728,0.0-6.2-33.2,go_nogo_deval,421,,<div></div>,32,1400,test,,,,,,,,,,,,-1,-1,500,0,fixation,poldrack-single-stim,384,462229,0.0-6.2-34.2,go_nogo_deval,421,,<div class = centerbox><div class = fixation>+</div></div>,none,500,test,,,,,,,,,,,,322,32,850,0,stim,poldrack-single-stim,385,463080,0.0-6.2-35.2,go_nogo_deval,421,,<img class = center src='/static/experiments/go_nogo_deval/images/red_rhombus.png'></img>,32,850,test,red_rhombus,go1,32,11,2,,,,,,,-1,-1,1400,0,ITI,poldrack-single-stim,386,464481,0.0-6.2-36.2,go_nogo_deval,421,,<div></div>,32,1400,test,,,,,,,,,,,,-1,-1,500,0,fixation,poldrack-single-stim,387,464983,0.0-6.2-37.2,go_nogo_deval,421,,<div class = centerbox><div class = fixation>+</div></div>,none,500,test,,,,,,,,,,,,-1,-1,850,0,stim,poldrack-single-stim,388,465835,0.0-6.2-38.2,go_nogo_deval,421,,<img class = center src='/static/experiments/go_nogo_deval/images/blue_triangle.png'></img>,32,850,test,blue_triangle,nogo2,-1,12,2,,,,,,,-1,-1,1400,0,ITI,poldrack-single-stim,389,467237,0.0-6.2-39.2,go_nogo_deval,421,,<div></div>,32,1400,test,,,,,,,,,,,,-1,-1,500,0,fixation,poldrack-single-stim,390,467738,0.0-6.2-40.2,go_nogo_deval,421,,<div class = centerbox><div class = fixation>+</div></div>,none,500,test,,,,,,,,,,,,349,32,850,0,stim,poldrack-single-stim,391,468589,0.0-6.2-41.2,go_nogo_deval,421,,<img class = center src='/static/experiments/go_nogo_deval/images/purple_circle.png'></img>,32,850,test,purple_circle,go2,32,13,2,,,,,,,-1,-1,1400,0,ITI,poldrack-single-stim,392,469991,0.0-6.2-42.2,go_nogo_deval,421,,<div></div>,32,1400,test,,,,,,,,,,,,-1,-1,500,0,fixation,poldrack-single-stim,393,470494,0.0-6.2-43.2,go_nogo_deval,421,,<div class = centerbox><div class = fixation>+</div></div>,none,500,test,,,,,,,,,,,,336,32,850,0,stim,poldrack-single-stim,394,471346,0.0-6.2-44.2,go_nogo_deval,421,,<img class = center src='/static/experiments/go_nogo_deval/images/purple_circle.png'></img>,32,850,test,purple_circle,go2,32,14,2,,,,,,,-1,-1,1400,0,ITI,poldrack-single-stim,395,472747,0.0-6.2-45.2,go_nogo_deval,421,,<div></div>,32,1400,test,,,,,,,,,,,,-1,-1,500,0,fixation,poldrack-single-stim,396,473248,0.0-6.2-46.2,go_nogo_deval,421,,<div class = centerbox><div class = fixation>+</div></div>,none,500,test,,,,,,,,,,,,462,32,850,0,stim,poldrack-single-stim,397,474100,0.0-6.2-47.2,go_nogo_deval,421,,<img class = center src='/static/experiments/go_nogo_deval/images/red_rhombus.png'></img>,32,850,test,red_rhombus,go1,32,15,2,,,,,,,-1,-1,1400,0,ITI,poldrack-single-stim,398,475501,0.0-6.2-48.2,go_nogo_deval,421,,<div></div>,32,1400,test,,,,,,,,,,,,-1,-1,500,0,fixation,poldrack-single-stim,399,476003,0.0-6.2-49.2,go_nogo_deval,421,,<div class = centerbox><div class = fixation>+</div></div>,none,500,test,,,,,,,,,,,,-1,-1,850,0,stim,poldrack-single-stim,400,476855,0.0-6.2-50.2,go_nogo_deval,421,,<img class = center src='/static/experiments/go_nogo_deval/images/blue_triangle.png'></img>,32,850,test,blue_triangle,nogo2,-1,16,2,,,,,,,-1,-1,1400,0,ITI,poldrack-single-stim,401,478257,0.0-6.2-51.2,go_nogo_deval,421,,<div></div>,32,1400,test,,,,,,,,,,,,-1,-1,500,0,fixation,poldrack-single-stim,402,478758,0.0-6.2-52.2,go_nogo_deval,421,,<div class = centerbox><div class = fixation>+</div></div>,none,500,test,,,,,,,,,,,,287,32,850,0,stim,poldrack-single-stim,403,479610,0.0-6.2-53.2,go_nogo_deval,421,,<img class = center src='/static/experiments/go_nogo_deval/images/purple_circle.png'></img>,32,850,test,purple_circle,go2,32,17,2,,,,,,,-1,-1,1400,0,ITI,poldrack-single-stim,404,481012,0.0-6.2-54.2,go_nogo_deval,421,,<div></div>,32,1400,test,,,,,,,,,,,,-1,-1,500,0,fixation,poldrack-single-stim,405,481514,0.0-6.2-55.2,go_nogo_deval,421,,<div class = centerbox><div class = fixation>+</div></div>,none,500,test,,,,,,,,,,,,-1,-1,850,0,stim,poldrack-single-stim,406,482365,0.0-6.2-56.2,go_nogo_deval,421,,<img class = center src='/static/experiments/go_nogo_deval/images/green_pentagon.png'></img>,32,850,test,green_pentagon,nogo1,-1,18,2,,,,,,,-1,-1,1400,0,ITI,poldrack-single-stim,407,483767,0.0-6.2-57.2,go_nogo_deval,421,,<div></div>,32,1400,test,,,,,,,,,,,,-1,-1,500,0,fixation,poldrack-single-stim,408,484269,0.0-6.2-58.2,go_nogo_deval,421,,<div class = centerbox><div class = fixation>+</div></div>,none,500,test,,,,,,,,,,,,276,32,850,0,stim,poldrack-single-stim,409,485121,0.0-6.2-59.2,go_nogo_deval,421,,<img class = center src='/static/experiments/go_nogo_deval/images/red_rhombus.png'></img>,32,850,test,red_rhombus,go1,32,19,2,,,,,,,-1,-1,1400,0,ITI,poldrack-single-stim,410,486522,0.0-6.2-60.2,go_nogo_deval,421,,<div></div>,32,1400,test,,,,,,,,,,,,-1,-1,500,0,fixation,poldrack-single-stim,411,487022,0.0-6.2-61.2,go_nogo_deval,421,,<div class = centerbox><div class = fixation>+</div></div>,none,500,test,,,,,,,,,,,,380,32,850,0,stim,poldrack-single-stim,412,487874,0.0-6.2-62.2,go_nogo_deval,421,,<img class = center src='/static/experiments/go_nogo_deval/images/purple_circle.png'></img>,32,850,test,purple_circle,go2,32,20,2,,,,,,,-1,-1,1400,0,ITI,poldrack-single-stim,413,489276,0.0-6.2-63.2,go_nogo_deval,421,,<div></div>,32,1400,test,,,,,,,,,,,,-1,-1,500,0,fixation,poldrack-single-stim,414,489777,0.0-6.2-64.2,go_nogo_deval,421,,<div class = centerbox><div class = fixation>+</div></div>,none,500,test,,,,,,,,,,,,405,32,850,0,stim,poldrack-single-stim,415,490629,0.0-6.2-65.2,go_nogo_deval,421,,<img class = center src='/static/experiments/go_nogo_deval/images/red_rhombus.png'></img>,32,850,test,red_rhombus,go1,32,21,2,,,,,,,-1,-1,1400,0,ITI,poldrack-single-stim,416,492030,0.0-6.2-66.2,go_nogo_deval,421,,<div></div>,32,1400,test,,,,,,,,,,,,-1,-1,500,0,fixation,poldrack-single-stim,417,492532,0.0-6.2-67.2,go_nogo_deval,421,,<div class = centerbox><div class = fixation>+</div></div>,none,500,test,,,,,,,,,,,,270,32,850,0,stim,poldrack-single-stim,418,493383,0.0-6.2-68.2,go_nogo_deval,421,,<img class = center src='/static/experiments/go_nogo_deval/images/red_rhombus.png'></img>,32,850,test,red_rhombus,go1,32,22,2,,,,,,,-1,-1,1400,0,ITI,poldrack-single-stim,419,494785,0.0-6.2-69.2,go_nogo_deval,421,,<div></div>,32,1400,test,,,,,,,,,,,,-1,-1,500,0,fixation,poldrack-single-stim,420,495286,0.0-6.2-70.2,go_nogo_deval,421,,<div class = centerbox><div class = fixation>+</div></div>,none,500,test,,,,,,,,,,,,-1,-1,850,0,stim,poldrack-single-stim,421,496138,0.0-6.2-71.2,go_nogo_deval,421,,<img class = center src='/static/experiments/go_nogo_deval/images/green_pentagon.png'></img>,32,850,test,green_pentagon,nogo1,-1,23,2,,,,,,,-1,-1,1400,0,ITI,poldrack-single-stim,422,497539,0.0-6.2-72.2,go_nogo_deval,421,,<div></div>,32,1400,test,,,,,,,,,,,,-1,-1,500,0,fixation,poldrack-single-stim,423,498041,0.0-6.2-73.2,go_nogo_deval,421,,<div class = centerbox><div class = fixation>+</div></div>,none,500,test,,,,,,,,,,,,319,32,850,0,stim,poldrack-single-stim,424,498893,0.0-6.2-74.2,go_nogo_deval,421,,<img class = center src='/static/experiments/go_nogo_deval/images/red_rhombus.png'></img>,32,850,test,red_rhombus,go1,32,24,2,,,,,,,-1,-1,1400,0,ITI,poldrack-single-stim,425,500295,0.0-6.2-75.2,go_nogo_deval,421,,<div></div>,32,1400,test,,,,,,,,,,,,-1,-1,500,0,fixation,poldrack-single-stim,426,500796,0.0-6.2-76.2,go_nogo_deval,421,,<div class = centerbox><div class = fixation>+</div></div>,none,500,test,,,,,,,,,,,,254,32,850,0,stim,poldrack-single-stim,427,501647,0.0-6.2-77.2,go_nogo_deval,421,,<img class = center src='/static/experiments/go_nogo_deval/images/purple_circle.png'></img>,32,850,test,purple_circle,go2,32,25,2,,,,,,,-1,-1,1400,0,ITI,poldrack-single-stim,428,503049,0.0-6.2-78.2,go_nogo_deval,421,,<div></div>,32,1400,test,,,,,,,,,,,,-1,-1,500,0,fixation,poldrack-single-stim,429,503551,0.0-6.2-79.2,go_nogo_deval,421,,<div class = centerbox><div class = fixation>+</div></div>,none,500,test,,,,,,,,,,,,321,32,850,0,stim,poldrack-single-stim,430,504403,0.0-6.2-80.2,go_nogo_deval,421,,<img class = center src='/static/experiments/go_nogo_deval/images/red_rhombus.png'></img>,32,850,test,red_rhombus,go1,32,26,2,,,,,,,-1,-1,1400,0,ITI,poldrack-single-stim,431,505805,0.0-6.2-81.2,go_nogo_deval,421,,<div></div>,32,1400,test,,,,,,,,,,,,-1,-1,500,0,fixation,poldrack-single-stim,432,506306,0.0-6.2-82.2,go_nogo_deval,421,,<div class = centerbox><div class = fixation>+</div></div>,none,500,test,,,,,,,,,,,,346,32,850,0,stim,poldrack-single-stim,433,507157,0.0-6.2-83.2,go_nogo_deval,421,,<img class = center src='/static/experiments/go_nogo_deval/images/purple_circle.png'></img>,32,850,test,purple_circle,go2,32,27,2,,,,,,,-1,-1,1400,0,ITI,poldrack-single-stim,434,508559,0.0-6.2-84.2,go_nogo_deval,421,,<div></div>,32,1400,test,,,,,,,,,,,,-1,-1,500,0,fixation,poldrack-single-stim,435,509061,0.0-6.2-85.2,go_nogo_deval,421,,<div class = centerbox><div class = fixation>+</div></div>,none,500,test,,,,,,,,,,,,313,32,850,0,stim,poldrack-single-stim,436,509912,0.0-6.2-86.2,go_nogo_deval,421,,<img class = center src='/static/experiments/go_nogo_deval/images/purple_circle.png'></img>,32,850,test,purple_circle,go2,32,28,2,,,,,,,-1,-1,1400,0,ITI,poldrack-single-stim,437,511314,0.0-6.2-87.2,go_nogo_deval,421,,<div></div>,32,1400,test,,,,,,,,,,,,-1,-1,500,0,fixation,poldrack-single-stim,438,511815,0.0-6.2-88.2,go_nogo_deval,421,,<div class = centerbox><div class = fixation>+</div></div>,none,500,test,,,,,,,,,,,,394,32,850,0,stim,poldrack-single-stim,439,512666,0.0-6.2-89.2,go_nogo_deval,421,,<img class = center src='/static/experiments/go_nogo_deval/images/green_pentagon.png'></img>,32,850,test,green_pentagon,nogo1,-1,29,2,,,,,,,-1,-1,1400,0,ITI,poldrack-single-stim,440,514068,0.0-6.2-90.2,go_nogo_deval,421,,<div></div>,32,1400,test,,,,,,,,,,,,-1,-1,500,0,fixation,poldrack-single-stim,441,514570,0.0-6.2-91.2,go_nogo_deval,421,,<div class = centerbox><div class = fixation>+</div></div>,none,500,test,,,,,,,,,,,,327,32,850,0,stim,poldrack-single-stim,442,515422,0.0-6.2-92.2,go_nogo_deval,421,,<img class = center src='/static/experiments/go_nogo_deval/images/red_rhombus.png'></img>,32,850,test,red_rhombus,go1,32,30,2,,,,,,,-1,-1,1400,0,ITI,poldrack-single-stim,443,516824,0.0-6.2-93.2,go_nogo_deval,421,,<div></div>,32,1400,test,,,,,,,,,,,,-1,-1,500,0,fixation,poldrack-single-stim,444,517326,0.0-6.2-94.2,go_nogo_deval,421,,<div class = centerbox><div class = fixation>+</div></div>,none,500,test,,,,,,,,,,,,-1,-1,850,0,stim,poldrack-single-stim,445,518178,0.0-6.2-95.2,go_nogo_deval,421,,<img class = center src='/static/experiments/go_nogo_deval/images/blue_triangle.png'></img>,32,850,test,blue_triangle,nogo2,-1,31,2,,,,,,,-1,-1,1400,0,ITI,poldrack-single-stim,446,519580,0.0-6.2-96.2,go_nogo_deval,421,,<div></div>,32,1400,test,,,,,,,,,,,,-1,-1,500,0,fixation,poldrack-single-stim,447,520080,0.0-6.2-97.2,go_nogo_deval,421,,<div class = centerbox><div class = fixation>+</div></div>,none,500,test,,,,,,,,,,,,386,32,850,0,stim,poldrack-single-stim,448,520932,0.0-6.2-98.2,go_nogo_deval,421,,<img class = center src='/static/experiments/go_nogo_deval/images/red_rhombus.png'></img>,32,850,test,red_rhombus,go1,32,32,2,,,,,,,-1,-1,1400,0,ITI,poldrack-single-stim,449,522334,0.0-6.2-99.2,go_nogo_deval,421,,<div></div>,32,1400,test,,,,,,,,,,,,-1,-1,500,0,fixation,poldrack-single-stim,450,522836,0.0-6.2-100.2,go_nogo_deval,421,,<div class = centerbox><div class = fixation>+</div></div>,none,500,test,,,,,,,,,,,,286,32,850,0,stim,poldrack-single-stim,451,523688,0.0-6.2-101.2,go_nogo_deval,421,,<img class = center src='/static/experiments/go_nogo_deval/images/purple_circle.png'></img>,32,850,test,purple_circle,go2,32,33,2,,,,,,,-1,-1,1400,0,ITI,poldrack-single-stim,452,525088,0.0-6.2-102.2,go_nogo_deval,421,,<div></div>,32,1400,test,,,,,,,,,,,,-1,-1,500,0,fixation,poldrack-single-stim,453,525590,0.0-6.2-103.2,go_nogo_deval,421,,<div class = centerbox><div class = fixation>+</div></div>,none,500,test,,,,,,,,,,,,-1,-1,850,0,stim,poldrack-single-stim,454,526442,0.0-6.2-104.2,go_nogo_deval,421,,<img class = center src='/static/experiments/go_nogo_deval/images/blue_triangle.png'></img>,32,850,test,blue_triangle,nogo2,-1,34,2,,,,,,,-1,-1,1400,0,ITI,poldrack-single-stim,455,527844,0.0-6.2-105.2,go_nogo_deval,421,,<div></div>,32,1400,test,,,,,,,,,,,,-1,-1,500,0,fixation,poldrack-single-stim,456,528345,0.0-6.2-106.2,go_nogo_deval,421,,<div class = centerbox><div class = fixation>+</div></div>,none,500,test,,,,,,,,,,,,391,32,850,0,stim,poldrack-single-stim,457,529197,0.0-6.2-107.2,go_nogo_deval,421,,<img class = center src='/static/experiments/go_nogo_deval/images/red_rhombus.png'></img>,32,850,test,red_rhombus,go1,32,35,2,,,,,,,-1,-1,1400,0,ITI,poldrack-single-stim,458,530598,0.0-6.2-108.2,go_nogo_deval,421,,<div></div>,32,1400,test,,,,,,,,,,,,-1,-1,500,0,fixation,poldrack-single-stim,459,531100,0.0-6.2-109.2,go_nogo_deval,421,,<div class = centerbox><div class = fixation>+</div></div>,none,500,test,,,,,,,,,,,,335,32,850,0,stim,poldrack-single-stim,460,531952,0.0-6.2-110.2,go_nogo_deval,421,,<img class = center src='/static/experiments/go_nogo_deval/images/blue_triangle.png'></img>,32,850,test,blue_triangle,nogo2,-1,36,2,,,,,,,-1,-1,1400,0,ITI,poldrack-single-stim,461,533354,0.0-6.2-111.2,go_nogo_deval,421,,<div></div>,32,1400,test,,,,,,,,,,,,-1,-1,500,0,fixation,poldrack-single-stim,462,533856,0.0-6.2-112.2,go_nogo_deval,421,,<div class = centerbox><div class = fixation>+</div></div>,none,500,test,,,,,,,,,,,,381,32,850,0,stim,poldrack-single-stim,463,534707,0.0-6.2-113.2,go_nogo_deval,421,,<img class = center src='/static/experiments/go_nogo_deval/images/red_rhombus.png'></img>,32,850,test,red_rhombus,go1,32,37,2,,,,,,,-1,-1,1400,0,ITI,poldrack-single-stim,464,536108,0.0-6.2-114.2,go_nogo_deval,421,,<div></div>,32,1400,test,,,,,,,,,,,,-1,-1,500,0,fixation,poldrack-single-stim,465,536610,0.0-6.2-115.2,go_nogo_deval,421,,<div class = centerbox><div class = fixation>+</div></div>,none,500,test,,,,,,,,,,,,-1,-1,850,0,stim,poldrack-single-stim,466,537462,0.0-6.2-116.2,go_nogo_deval,421,,<img class = center src='/static/experiments/go_nogo_deval/images/green_pentagon.png'></img>,32,850,test,green_pentagon,nogo1,-1,38,2,,,,,,,-1,-1,1400,0,ITI,poldrack-single-stim,467,538863,0.0-6.2-117.2,go_nogo_deval,421,,<div></div>,32,1400,test,,,,,,,,,,,,-1,-1,500,0,fixation,poldrack-single-stim,468,539365,0.0-6.2-118.2,go_nogo_deval,421,,<div class = centerbox><div class = fixation>+</div></div>,none,500,test,,,,,,,,,,,,-1,-1,850,0,stim,poldrack-single-stim,469,540215,0.0-6.2-119.2,go_nogo_deval,421,,<img class = center src='/static/experiments/go_nogo_deval/images/blue_triangle.png'></img>,32,850,test,blue_triangle,nogo2,-1,39,2,,,,,,,-1,-1,1400,0,ITI,poldrack-single-stim,470,541618,0.0-6.2-120.2,go_nogo_deval,421,,<div></div>,32,1400,test,,,,,,,,,,,,-1,-1,500,0,fixation,poldrack-single-stim,471,542119,0.0-6.2-121.2,go_nogo_deval,421,,<div class = centerbox><div class = fixation>+</div></div>,none,500,test,,,,,,,,,,,,431,32,850,0,stim,poldrack-single-stim,472,542971,0.0-6.2-122.2,go_nogo_deval,421,,<img class = center src='/static/experiments/go_nogo_deval/images/red_rhombus.png'></img>,32,850,test,red_rhombus,go1,32,40,2,,,,,,,-1,-1,1400,0,ITI,poldrack-single-stim,473,544373,0.0-6.2-123.2,go_nogo_deval,421,,<div></div>,32,1400,test,,,,,,,,,,,,-1,-1,500,0,fixation,poldrack-single-stim,474,544875,0.0-6.2-124.2,go_nogo_deval,421,,<div class = centerbox><div class = fixation>+</div></div>,none,500,test,,,,,,,,,,,,376,32,850,0,stim,poldrack-single-stim,475,545727,0.0-6.2-125.2,go_nogo_deval,421,,<img class = center src='/static/experiments/go_nogo_deval/images/red_rhombus.png'></img>,32,850,test,red_rhombus,go1,32,41,2,,,,,,,-1,-1,1400,0,ITI,poldrack-single-stim,476,547129,0.0-6.2-126.2,go_nogo_deval,421,,<div></div>,32,1400,test,,,,,,,,,,,,-1,-1,500,0,fixation,poldrack-single-stim,477,547630,0.0-6.2-127.2,go_nogo_deval,421,,<div class = centerbox><div class = fixation>+</div></div>,none,500,test,,,,,,,,,,,,343,32,850,0,stim,poldrack-single-stim,478,548481,0.0-6.2-128.2,go_nogo_deval,421,,<img class = center src='/static/experiments/go_nogo_deval/images/purple_circle.png'></img>,32,850,test,purple_circle,go2,32,42,2,,,,,,,-1,-1,1400,0,ITI,poldrack-single-stim,479,549882,0.0-6.2-129.2,go_nogo_deval,421,,<div></div>,32,1400,test,,,,,,,,,,,,-1,-1,500,0,fixation,poldrack-single-stim,480,550384,0.0-6.2-130.2,go_nogo_deval,421,,<div class = centerbox><div class = fixation>+</div></div>,none,500,test,,,,,,,,,,,,379,32,850,0,stim,poldrack-single-stim,481,551236,0.0-6.2-131.2,go_nogo_deval,421,,<img class = center src='/static/experiments/go_nogo_deval/images/red_rhombus.png'></img>,32,850,test,red_rhombus,go1,32,43,2,,,,,,,-1,-1,1400,0,ITI,poldrack-single-stim,482,552638,0.0-6.2-132.2,go_nogo_deval,421,,<div></div>,32,1400,test,,,,,,,,,,,,-1,-1,500,0,fixation,poldrack-single-stim,483,553139,0.0-6.2-133.2,go_nogo_deval,421,,<div class = centerbox><div class = fixation>+</div></div>,none,500,test,,,,,,,,,,,,334,32,850,0,stim,poldrack-single-stim,484,553991,0.0-6.2-134.2,go_nogo_deval,421,,<img class = center src='/static/experiments/go_nogo_deval/images/red_rhombus.png'></img>,32,850,test,red_rhombus,go1,32,44,2,,,,,,,-1,-1,1400,0,ITI,poldrack-single-stim,485,555393,0.0-6.2-135.2,go_nogo_deval,421,,<div></div>,32,1400,test,,,,,,,,,,,,-1,-1,500,0,fixation,poldrack-single-stim,486,555894,0.0-6.2-136.2,go_nogo_deval,421,,<div class = centerbox><div class = fixation>+</div></div>,none,500,test,,,,,,,,,,,,-1,-1,850,0,stim,poldrack-single-stim,487,556746,0.0-6.2-137.2,go_nogo_deval,421,,<img class = center src='/static/experiments/go_nogo_deval/images/blue_triangle.png'></img>,32,850,test,blue_triangle,nogo2,-1,45,2,,,,,,,-1,-1,1400,0,ITI,poldrack-single-stim,488,558148,0.0-6.2-138.2,go_nogo_deval,421,,<div></div>,32,1400,test,,,,,,,,,,,,-1,-1,500,0,fixation,poldrack-single-stim,489,558650,0.0-6.2-139.2,go_nogo_deval,421,,<div class = centerbox><div class = fixation>+</div></div>,none,500,test,,,,,,,,,,,,405,32,850,0,stim,poldrack-single-stim,490,559501,0.0-6.2-140.2,go_nogo_deval,421,,<img class = center src='/static/experiments/go_nogo_deval/images/purple_circle.png'></img>,32,850,test,purple_circle,go2,32,46,2,,,,,,,-1,-1,1400,0,ITI,poldrack-single-stim,491,560902,0.0-6.2-141.2,go_nogo_deval,421,,<div></div>,32,1400,test,,,,,,,,,,,,-1,-1,500,0,fixation,poldrack-single-stim,492,561403,0.0-6.2-142.2,go_nogo_deval,421,,<div class = centerbox><div class = fixation>+</div></div>,none,500,test,,,,,,,,,,,,317,32,850,0,stim,poldrack-single-stim,493,562255,0.0-6.2-143.2,go_nogo_deval,421,,<img class = center src='/static/experiments/go_nogo_deval/images/red_rhombus.png'></img>,32,850,test,red_rhombus,go1,32,47,2,,,,,,,-1,-1,1400,0,ITI,poldrack-single-stim,494,563657,0.0-6.2-144.2,go_nogo_deval,421,,<div></div>,32,1400,test,,,,,,,,,,,,7734,13,7734,0,practice-no-stop-feedback,poldrack-single-stim,495,571397,0.0-6.3-0.3,go_nogo_deval,421,,"<div class = centerbox><p class = block-text><br>Please take this time to read your feedback and to take a short break! Press enter to continue</p><p class = block-text><strong>Average reaction time:  350 ms. Accuracy: 94%</strong></p><p class = block-text>We have detected a number of trials that <strong>required no response</strong>, where a response was made.  Please <strong>ensure that you do not respond </strong>to shapes that require no response</p></div>",13,7734,,,,,,,,,,,,,-1,-1,500,0,fixation,poldrack-single-stim,496,571898,0.0-6.3-1.3,go_nogo_deval,421,,<div class = centerbox><div class = fixation>+</div></div>,none,500,test,,,,,,,,,,,,432,32,850,0,stim,poldrack-single-stim,497,572750,0.0-6.3-2.3,go_nogo_deval,421,,<img class = center src='/static/experiments/go_nogo_deval/images/purple_circle.png'></img>,32,850,test,purple_circle,go2,32,0,3,,,,,,,-1,-1,1400,0,ITI,poldrack-single-stim,498,574151,0.0-6.3-3.3,go_nogo_deval,421,,<div></div>,32,1400,test,,,,,,,,,,,,-1,-1,500,0,fixation,poldrack-single-stim,499,574653,0.0-6.3-4.3,go_nogo_deval,421,,<div class = centerbox><div class = fixation>+</div></div>,none,500,test,,,,,,,,,,,,454,32,850,0,stim,poldrack-single-stim,500,575505,0.0-6.3-5.3,go_nogo_deval,421,,<img class = center src='/static/experiments/go_nogo_deval/images/red_rhombus.png'></img>,32,850,test,red_rhombus,go1,32,1,3,,,,,,,-1,-1,1400,0,ITI,poldrack-single-stim,501,576907,0.0-6.3-6.3,go_nogo_deval,421,,<div></div>,32,1400,test,,,,,,,,,,,,-1,-1,500,0,fixation,poldrack-single-stim,502,577408,0.0-6.3-7.3,go_nogo_deval,421,,<div class = centerbox><div class = fixation>+</div></div>,none,500,test,,,,,,,,,,,,344,32,850,0,stim,poldrack-single-stim,503,578260,0.0-6.3-8.3,go_nogo_deval,421,,<img class = center src='/static/experiments/go_nogo_deval/images/purple_circle.png'></img>,32,850,test,purple_circle,go2,32,2,3,,,,,,,-1,-1,1400,0,ITI,poldrack-single-stim,504,579661,0.0-6.3-9.3,go_nogo_deval,421,,<div></div>,32,1400,test,,,,,,,,,,,,-1,-1,500,0,fixation,poldrack-single-stim,505,580163,0.0-6.3-10.3,go_nogo_deval,421,,<div class = centerbox><div class = fixation>+</div></div>,none,500,test,,,,,,,,,,,,334,32,850,0,stim,poldrack-single-stim,506,581015,0.0-6.3-11.3,go_nogo_deval,421,,<img class = center src='/static/experiments/go_nogo_deval/images/purple_circle.png'></img>,32,850,test,purple_circle,go2,32,3,3,,,,,,,-1,-1,1400,0,ITI,poldrack-single-stim,507,582416,0.0-6.3-12.3,go_nogo_deval,421,,<div></div>,32,1400,test,,,,,,,,,,,,-1,-1,500,0,fixation,poldrack-single-stim,508,582918,0.0-6.3-13.3,go_nogo_deval,421,,<div class = centerbox><div class = fixation>+</div></div>,none,500,test,,,,,,,,,,,,-1,-1,850,0,stim,poldrack-single-stim,509,583769,0.0-6.3-14.3,go_nogo_deval,421,,<img class = center src='/static/experiments/go_nogo_deval/images/green_pentagon.png'></img>,32,850,test,green_pentagon,nogo1,-1,4,3,,,,,,,-1,-1,1400,0,ITI,poldrack-single-stim,510,585169,0.0-6.3-15.3,go_nogo_deval,421,,<div></div>,32,1400,test,,,,,,,,,,,,-1,-1,500,0,fixation,poldrack-single-stim,511,585671,0.0-6.3-16.3,go_nogo_deval,421,,<div class = centerbox><div class = fixation>+</div></div>,none,500,test,,,,,,,,,,,,361,32,850,0,stim,poldrack-single-stim,512,586523,0.0-6.3-17.3,go_nogo_deval,421,,<img class = center src='/static/experiments/go_nogo_deval/images/red_rhombus.png'></img>,32,850,test,red_rhombus,go1,32,5,3,,,,,,,-1,-1,1400,0,ITI,poldrack-single-stim,513,587925,0.0-6.3-18.3,go_nogo_deval,421,,<div></div>,32,1400,test,,,,,,,,,,,,-1,-1,500,0,fixation,poldrack-single-stim,514,588426,0.0-6.3-19.3,go_nogo_deval,421,,<div class = centerbox><div class = fixation>+</div></div>,none,500,test,,,,,,,,,,,,362,32,850,0,stim,poldrack-single-stim,515,589277,0.0-6.3-20.3,go_nogo_deval,421,,<img class = center src='/static/experiments/go_nogo_deval/images/red_rhombus.png'></img>,32,850,test,red_rhombus,go1,32,6,3,,,,,,,-1,-1,1400,0,ITI,poldrack-single-stim,516,590679,0.0-6.3-21.3,go_nogo_deval,421,,<div></div>,32,1400,test,,,,,,,,,,,,-1,-1,500,0,fixation,poldrack-single-stim,517,591181,0.0-6.3-22.3,go_nogo_deval,421,,<div class = centerbox><div class = fixation>+</div></div>,none,500,test,,,,,,,,,,,,-1,-1,850,0,stim,poldrack-single-stim,518,592033,0.0-6.3-23.3,go_nogo_deval,421,,<img class = center src='/static/experiments/go_nogo_deval/images/green_pentagon.png'></img>,32,850,test,green_pentagon,nogo1,-1,7,3,,,,,,,-1,-1,1400,0,ITI,poldrack-single-stim,519,593435,0.0-6.3-24.3,go_nogo_deval,421,,<div></div>,32,1400,test,,,,,,,,,,,,-1,-1,500,0,fixation,poldrack-single-stim,520,593935,0.0-6.3-25.3,go_nogo_deval,421,,<div class = centerbox><div class = fixation>+</div></div>,none,500,test,,,,,,,,,,,,309,32,850,0,stim,poldrack-single-stim,521,594787,0.0-6.3-26.3,go_nogo_deval,421,,<img class = center src='/static/experiments/go_nogo_deval/images/red_rhombus.png'></img>,32,850,test,red_rhombus,go1,32,8,3,,,,,,,-1,-1,1400,0,ITI,poldrack-single-stim,522,596189,0.0-6.3-27.3,go_nogo_deval,421,,<div></div>,32,1400,test,,,,,,,,,,,,-1,-1,500,0,fixation,poldrack-single-stim,523,596690,0.0-6.3-28.3,go_nogo_deval,421,,<div class = centerbox><div class = fixation>+</div></div>,none,500,test,,,,,,,,,,,,323,32,850,0,stim,poldrack-single-stim,524,597542,0.0-6.3-29.3,go_nogo_deval,421,,<img class = center src='/static/experiments/go_nogo_deval/images/red_rhombus.png'></img>,32,850,test,red_rhombus,go1,32,9,3,,,,,,,-1,-1,1400,0,ITI,poldrack-single-stim,525,598943,0.0-6.3-30.3,go_nogo_deval,421,,<div></div>,32,1400,test,,,,,,,,,,,,-1,-1,500,0,fixation,poldrack-single-stim,526,599444,0.0-6.3-31.3,go_nogo_deval,421,,<div class = centerbox><div class = fixation>+</div></div>,none,500,test,,,,,,,,,,,,-1,-1,850,0,stim,poldrack-single-stim,527,600296,0.0-6.3-32.3,go_nogo_deval,421,,<img class = center src='/static/experiments/go_nogo_deval/images/green_pentagon.png'></img>,32,850,test,green_pentagon,nogo1,-1,10,3,,,,,,,-1,-1,1400,0,ITI,poldrack-single-stim,528,601698,0.0-6.3-33.3,go_nogo_deval,421,,<div></div>,32,1400,test,,,,,,,,,,,,-1,-1,500,0,fixation,poldrack-single-stim,529,602198,0.0-6.3-34.3,go_nogo_deval,421,,<div class = centerbox><div class = fixation>+</div></div>,none,500,test,,,,,,,,,,,,382,32,850,0,stim,poldrack-single-stim,530,603050,0.0-6.3-35.3,go_nogo_deval,421,,<img class = center src='/static/experiments/go_nogo_deval/images/red_rhombus.png'></img>,32,850,test,red_rhombus,go1,32,11,3,,,,,,,-1,-1,1400,0,ITI,poldrack-single-stim,531,604451,0.0-6.3-36.3,go_nogo_deval,421,,<div></div>,32,1400,test,,,,,,,,,,,,-1,-1,500,0,fixation,poldrack-single-stim,532,604953,0.0-6.3-37.3,go_nogo_deval,421,,<div class = centerbox><div class = fixation>+</div></div>,none,500,test,,,,,,,,,,,,-1,-1,850,0,stim,poldrack-single-stim,533,605805,0.0-6.3-38.3,go_nogo_deval,421,,<img class = center src='/static/experiments/go_nogo_deval/images/blue_triangle.png'></img>,32,850,test,blue_triangle,nogo2,-1,12,3,,,,,,,-1,-1,1400,0,ITI,poldrack-single-stim,534,607207,0.0-6.3-39.3,go_nogo_deval,421,,<div></div>,32,1400,test,,,,,,,,,,,,-1,-1,500,0,fixation,poldrack-single-stim,535,607708,0.0-6.3-40.3,go_nogo_deval,421,,<div class = centerbox><div class = fixation>+</div></div>,none,500,test,,,,,,,,,,,,-1,-1,850,0,stim,poldrack-single-stim,536,608560,0.0-6.3-41.3,go_nogo_deval,421,,<img class = center src='/static/experiments/go_nogo_deval/images/green_pentagon.png'></img>,32,850,test,green_pentagon,nogo1,-1,13,3,,,,,,,-1,-1,1400,0,ITI,poldrack-single-stim,537,609962,0.0-6.3-42.3,go_nogo_deval,421,,<div></div>,32,1400,test,,,,,,,,,,,,-1,-1,500,0,fixation,poldrack-single-stim,538,610463,0.0-6.3-43.3,go_nogo_deval,421,,<div class = centerbox><div class = fixation>+</div></div>,none,500,test,,,,,,,,,,,,-1,-1,850,0,stim,poldrack-single-stim,539,611315,0.0-6.3-44.3,go_nogo_deval,421,,<img class = center src='/static/experiments/go_nogo_deval/images/blue_triangle.png'></img>,32,850,test,blue_triangle,nogo2,-1,14,3,,,,,,,-1,-1,1400,0,ITI,poldrack-single-stim,540,612716,0.0-6.3-45.3,go_nogo_deval,421,,<div></div>,32,1400,test,,,,,,,,,,,,-1,-1,500,0,fixation,poldrack-single-stim,541,613218,0.0-6.3-46.3,go_nogo_deval,421,,<div class = centerbox><div class = fixation>+</div></div>,none,500,test,,,,,,,,,,,,389,32,850,0,stim,poldrack-single-stim,542,614069,0.0-6.3-47.3,go_nogo_deval,421,,<img class = center src='/static/experiments/go_nogo_deval/images/purple_circle.png'></img>,32,850,test,purple_circle,go2,32,15,3,,,,,,,-1,-1,1400,0,ITI,poldrack-single-stim,543,615471,0.0-6.3-48.3,go_nogo_deval,421,,<div></div>,32,1400,test,,,,,,,,,,,,-1,-1,500,0,fixation,poldrack-single-stim,544,615973,0.0-6.3-49.3,go_nogo_deval,421,,<div class = centerbox><div class = fixation>+</div></div>,none,500,test,,,,,,,,,,,,547,32,850,0,stim,poldrack-single-stim,545,616825,0.0-6.3-50.3,go_nogo_deval,421,,<img class = center src='/static/experiments/go_nogo_deval/images/purple_circle.png'></img>,32,850,test,purple_circle,go2,32,16,3,,,,,,,-1,-1,1400,0,ITI,poldrack-single-stim,546,618225,0.0-6.3-51.3,go_nogo_deval,421,,<div></div>,32,1400,test,,,,,,,,,,,,-1,-1,500,0,fixation,poldrack-single-stim,547,618727,0.0-6.3-52.3,go_nogo_deval,421,,<div class = centerbox><div class = fixation>+</div></div>,none,500,test,,,,,,,,,,,,302,32,850,0,stim,poldrack-single-stim,548,619579,0.0-6.3-53.3,go_nogo_deval,421,,<img class = center src='/static/experiments/go_nogo_deval/images/red_rhombus.png'></img>,32,850,test,red_rhombus,go1,32,17,3,,,,,,,-1,-1,1400,0,ITI,poldrack-single-stim,549,620981,0.0-6.3-54.3,go_nogo_deval,421,,<div></div>,32,1400,test,,,,,,,,,,,,-1,-1,500,0,fixation,poldrack-single-stim,550,621482,0.0-6.3-55.3,go_nogo_deval,421,,<div class = centerbox><div class = fixation>+</div></div>,none,500,test,,,,,,,,,,,,-1,-1,850,0,stim,poldrack-single-stim,551,622334,0.0-6.3-56.3,go_nogo_deval,421,,<img class = center src='/static/experiments/go_nogo_deval/images/green_pentagon.png'></img>,32,850,test,green_pentagon,nogo1,-1,18,3,,,,,,,-1,-1,1400,0,ITI,poldrack-single-stim,552,623734,0.0-6.3-57.3,go_nogo_deval,421,,<div></div>,32,1400,test,,,,,,,,,,,,-1,-1,500,0,fixation,poldrack-single-stim,553,624236,0.0-6.3-58.3,go_nogo_deval,421,,<div class = centerbox><div class = fixation>+</div></div>,none,500,test,,,,,,,,,,,,396,32,850,0,stim,poldrack-single-stim,554,625088,0.0-6.3-59.3,go_nogo_deval,421,,<img class = center src='/static/experiments/go_nogo_deval/images/purple_circle.png'></img>,32,850,test,purple_circle,go2,32,19,3,,,,,,,-1,-1,1400,0,ITI,poldrack-single-stim,555,626490,0.0-6.3-60.3,go_nogo_deval,421,,<div></div>,32,1400,test,,,,,,,,,,,,-1,-1,500,0,fixation,poldrack-single-stim,556,626990,0.0-6.3-61.3,go_nogo_deval,421,,<div class = centerbox><div class = fixation>+</div></div>,none,500,test,,,,,,,,,,,,-1,-1,850,0,stim,poldrack-single-stim,557,627842,0.0-6.3-62.3,go_nogo_deval,421,,<img class = center src='/static/experiments/go_nogo_deval/images/blue_triangle.png'></img>,32,850,test,blue_triangle,nogo2,-1,20,3,,,,,,,-1,-1,1400,0,ITI,poldrack-single-stim,558,629244,0.0-6.3-63.3,go_nogo_deval,421,,<div></div>,32,1400,test,,,,,,,,,,,,-1,-1,500,0,fixation,poldrack-single-stim,559,629746,0.0-6.3-64.3,go_nogo_deval,421,,<div class = centerbox><div class = fixation>+</div></div>,none,500,test,,,,,,,,,,,,342,32,850,0,stim,poldrack-single-stim,560,630598,0.0-6.3-65.3,go_nogo_deval,421,,<img class = center src='/static/experiments/go_nogo_deval/images/purple_circle.png'></img>,32,850,test,purple_circle,go2,32,21,3,,,,,,,-1,-1,1400,0,ITI,poldrack-single-stim,561,632000,0.0-6.3-66.3,go_nogo_deval,421,,<div></div>,32,1400,test,,,,,,,,,,,,-1,-1,500,0,fixation,poldrack-single-stim,562,632501,0.0-6.3-67.3,go_nogo_deval,421,,<div class = centerbox><div class = fixation>+</div></div>,none,500,test,,,,,,,,,,,,522,32,850,0,stim,poldrack-single-stim,563,633352,0.0-6.3-68.3,go_nogo_deval,421,,<img class = center src='/static/experiments/go_nogo_deval/images/red_rhombus.png'></img>,32,850,test,red_rhombus,go1,32,22,3,,,,,,,-1,-1,1400,0,ITI,poldrack-single-stim,564,634754,0.0-6.3-69.3,go_nogo_deval,421,,<div></div>,32,1400,test,,,,,,,,,,,,-1,-1,500,0,fixation,poldrack-single-stim,565,635256,0.0-6.3-70.3,go_nogo_deval,421,,<div class = centerbox><div class = fixation>+</div></div>,none,500,test,,,,,,,,,,,,446,32,850,0,stim,poldrack-single-stim,566,636108,0.0-6.3-71.3,go_nogo_deval,421,,<img class = center src='/static/experiments/go_nogo_deval/images/red_rhombus.png'></img>,32,850,test,red_rhombus,go1,32,23,3,,,,,,,-1,-1,1400,0,ITI,poldrack-single-stim,567,637509,0.0-6.3-72.3,go_nogo_deval,421,,<div></div>,32,1400,test,,,,,,,,,,,,-1,-1,500,0,fixation,poldrack-single-stim,568,638010,0.0-6.3-73.3,go_nogo_deval,421,,<div class = centerbox><div class = fixation>+</div></div>,none,500,test,,,,,,,,,,,,346,32,850,0,stim,poldrack-single-stim,569,638861,0.0-6.3-74.3,go_nogo_deval,421,,<img class = center src='/static/experiments/go_nogo_deval/images/purple_circle.png'></img>,32,850,test,purple_circle,go2,32,24,3,,,,,,,-1,-1,1400,0,ITI,poldrack-single-stim,570,640262,0.0-6.3-75.3,go_nogo_deval,421,,<div></div>,32,1400,test,,,,,,,,,,,,-1,-1,500,0,fixation,poldrack-single-stim,571,640763,0.0-6.3-76.3,go_nogo_deval,421,,<div class = centerbox><div class = fixation>+</div></div>,none,500,test,,,,,,,,,,,