text,rt,key_press,block_duration,timing_post_trial,trial_id,trial_type,trial_index,time_elapsed,internal_node_id,exp_id,subject_ID,view_history,stimulus,possible_responses,stim_duration,exp_stage,stim,go_nogo_type,correct_response,current_trial,current_block,chosenStim,chosenCond,stimLeft,cond_left,stimRight,cond_right<div class = centerbox><p class = center-block-text>Welcome to the task!</p><p class = center-block-text>Press<strong> enter</strong> to continue.</p></div>,6473,13,6473,0,welcome,poldrack-text,0,6475,0.0-0.0,go_nogo_deval,427,,,,,,,,,,,,,,,,,48298,,,,instruction,poldrack-instructions,1,54774,0.0-1.0,go_nogo_deval,427,"[{""page_index"":0,""viewing_time"":14379},{""page_index"":1,""viewing_time"":33919}]",,,,,,,,,,,,,,,,5101,13,5101,0,stop_intro_phase1,poldrack-single-stim,2,60879,0.0-2.0,go_nogo_deval,427,,"<div class = centerbox><p class = block-text>We will now start the practice for the experiment.<br><br>For these trials, you must press the <strong>spacebar </strong> or have <strong>no response</strong> depending on the shape of the stimulus.  Make sure to respond as quickly and accurately as possible to the shape. <br><br> The responses for each shape are as follows: <ul list-text><li>triangle: spacebar</li><li>rhombus: spacebar</li><li>circle: no response</li><li>pentagon: no response</li></ul></p><p class = block-text>Remember these rules before you proceed.</p><p class = block-text>Press <strong> enter</strong> to begin.</p></div>",13,5101,,,,,,,,,,,,,2473,13,2473,0,practice-no-stop-feedback,poldrack-single-stim,3,63354,0.0-3.0-0.0,go_nogo_deval,427,,<div class = centerbox><p class = block-text>We will now start with a practice session. In this practice concentrate on responding quickly and accurately to each stimuli unless it requires no response.</p><p class = block-text>Press enter to continue.</p></div>,13,2473,,,,,,,,,,,,,-1,-1,500,0,prompt_fixation,poldrack-single-stim,4,63856,0.0-3.0-1.0,go_nogo_deval,427,,<div class = centerbox><div class = fixation>+</div></div>,none,500,practice,,,,,,,,,,,,565,32,850,0,stim,poldrack-single-stim,5,64709,0.0-3.0-2.0,go_nogo_deval,427,,<img class = center src='/static/experiments/go_nogo_deval/images/purple_circle.png'></img>,32,850,practice,purple_circle,nogo1,-1,0,0,,,,,,,-1,-1,1400,0,ITI,poldrack-single-stim,6,66111,0.0-3.0-3.0,go_nogo_deval,427,,<div></div>,32,1400,practice,,,,,,,,,,,,-1,-1,500,0,prompt_fixation,poldrack-single-stim,7,66613,0.0-3.0-4.0,go_nogo_deval,427,,<div class = centerbox><div class = fixation>+</div></div>,none,500,practice,,,,,,,,,,,,-1,-1,850,0,stim,poldrack-single-stim,8,67464,0.0-3.0-5.0,go_nogo_deval,427,,<img class = center src='/static/experiments/go_nogo_deval/images/green_triangle.png'></img>,32,850,practice,green_triangle,go1,32,1,0,,,,,,,85,32,1400,0,ITI,poldrack-single-stim,9,68865,0.0-3.0-6.0,go_nogo_deval,427,,<div></div>,32,1400,practice,,,,,,,,,,,,-1,-1,500,0,prompt_fixation,poldrack-single-stim,10,69367,0.0-3.0-7.0,go_nogo_deval,427,,<div class = centerbox><div class = fixation>+</div></div>,none,500,practice,,,,,,,,,,,,-1,-1,850,0,stim,poldrack-single-stim,11,70219,0.0-3.0-8.0,go_nogo_deval,427,,<img class = center src='/static/experiments/go_nogo_deval/images/purple_circle.png'></img>,32,850,practice,purple_circle,nogo1,-1,2,0,,,,,,,-1,-1,1400,0,ITI,poldrack-single-stim,12,71620,0.0-3.0-9.0,go_nogo_deval,427,,<div></div>,32,1400,practice,,,,,,,,,,,,-1,-1,500,0,prompt_fixation,poldrack-single-stim,13,72122,0.0-3.0-10.0,go_nogo_deval,427,,<div class = centerbox><div class = fixation>+</div></div>,none,500,practice,,,,,,,,,,,,489,32,850,0,stim,poldrack-single-stim,14,72975,0.0-3.0-11.0,go_nogo_deval,427,,<img class = center src='/static/experiments/go_nogo_deval/images/red_rhombus.png'></img>,32,850,practice,red_rhombus,go2,32,3,0,,,,,,,-1,-1,1400,0,ITI,poldrack-single-stim,15,74377,0.0-3.0-12.0,go_nogo_deval,427,,<div></div>,32,1400,practice,,,,,,,,,,,,-1,-1,500,0,prompt_fixation,poldrack-single-stim,16,74879,0.0-3.0-13.0,go_nogo_deval,427,,<div class = centerbox><div class = fixation>+</div></div>,none,500,practice,,,,,,,,,,,,681,32,850,0,stim,poldrack-single-stim,17,75730,0.0-3.0-14.0,go_nogo_deval,427,,<img class = center src='/static/experiments/go_nogo_deval/images/red_rhombus.png'></img>,32,850,practice,red_rhombus,go2,32,4,0,,,,,,,-1,-1,1400,0,ITI,poldrack-single-stim,18,77131,0.0-3.0-15.0,go_nogo_deval,427,,<div></div>,32,1400,practice,,,,,,,,,,,,-1,-1,500,0,prompt_fixation,poldrack-single-stim,19,77633,0.0-3.0-16.0,go_nogo_deval,427,,<div class = centerbox><div class = fixation>+</div></div>,none,500,practice,,,,,,,,,,,,-1,-1,850,0,stim,poldrack-single-stim,20,78485,0.0-3.0-17.0,go_nogo_deval,427,,<img class = center src='/static/experiments/go_nogo_deval/images/blue_pentagon.png'></img>,32,850,practice,blue_pentagon,nogo2,-1,5,0,,,,,,,-1,-1,1400,0,ITI,poldrack-single-stim,21,79886,0.0-3.0-18.0,go_nogo_deval,427,,<div></div>,32,1400,practice,,,,,,,,,,,,-1,-1,500,0,prompt_fixation,poldrack-single-stim,22,80388,0.0-3.0-19.0,go_nogo_deval,427,,<div class = centerbox><div class = fixation>+</div></div>,none,500,practice,,,,,,,,,,,,628,32,850,0,stim,poldrack-single-stim,23,81241,0.0-3.0-20.0,go_nogo_deval,427,,<img class = center src='/static/experiments/go_nogo_deval/images/green_triangle.png'></img>,32,850,practice,green_triangle,go1,32,6,0,,,,,,,-1,-1,1400,0,ITI,poldrack-single-stim,24,82643,0.0-3.0-21.0,go_nogo_deval,427,,<div></div>,32,1400,practice,,,,,,,,,,,,-1,-1,500,0,prompt_fixation,poldrack-single-stim,25,83145,0.0-3.0-22.0,go_nogo_deval,427,,<div class = centerbox><div class = fixation>+</div></div>,none,500,practice,,,,,,,,,,,,650,32,850,0,stim,poldrack-single-stim,26,83996,0.0-3.0-23.0,go_nogo_deval,427,,<img class = center src='/static/experiments/go_nogo_deval/images/red_rhombus.png'></img>,32,850,practice,red_rhombus,go2,32,7,0,,,,,,,-1,-1,1400,0,ITI,poldrack-single-stim,27,85398,0.0-3.0-24.0,go_nogo_deval,427,,<div></div>,32,1400,practice,,,,,,,,,,,,-1,-1,500,0,prompt_fixation,poldrack-single-stim,28,85899,0.0-3.0-25.0,go_nogo_deval,427,,<div class = centerbox><div class = fixation>+</div></div>,none,500,practice,,,,,,,,,,,,494,32,850,0,stim,poldrack-single-stim,29,86751,0.0-3.0-26.0,go_nogo_deval,427,,<img class = center src='/static/experiments/go_nogo_deval/images/red_rhombus.png'></img>,32,850,practice,red_rhombus,go2,32,8,0,,,,,,,-1,-1,1400,0,ITI,poldrack-single-stim,30,88152,0.0-3.0-27.0,go_nogo_deval,427,,<div></div>,32,1400,practice,,,,,,,,,,,,-1,-1,500,0,prompt_fixation,poldrack-single-stim,31,88654,0.0-3.0-28.0,go_nogo_deval,427,,<div class = centerbox><div class = fixation>+</div></div>,none,500,practice,,,,,,,,,,,,586,32,850,0,stim,poldrack-single-stim,32,89506,0.0-3.0-29.0,go_nogo_deval,427,,<img class = center src='/static/experiments/go_nogo_deval/images/red_rhombus.png'></img>,32,850,practice,red_rhombus,go2,32,9,0,,,,,,,-1,-1,1400,0,ITI,poldrack-single-stim,33,90908,0.0-3.0-30.0,go_nogo_deval,427,,<div></div>,32,1400,practice,,,,,,,,,,,,-1,-1,500,0,prompt_fixation,poldrack-single-stim,34,91410,0.0-3.0-31.0,go_nogo_deval,427,,<div class = centerbox><div class = fixation>+</div></div>,none,500,practice,,,,,,,,,,,,777,32,850,0,stim,poldrack-single-stim,35,92262,0.0-3.0-32.0,go_nogo_deval,427,,<img class = center src='/static/experiments/go_nogo_deval/images/green_triangle.png'></img>,32,850,practice,green_triangle,go1,32,10,0,,,,,,,-1,-1,1400,0,ITI,poldrack-single-stim,36,93664,0.0-3.0-33.0,go_nogo_deval,427,,<div></div>,32,1400,practice,,,,,,,,,,,,-1,-1,500,0,prompt_fixation,poldrack-single-stim,37,94166,0.0-3.0-34.0,go_nogo_deval,427,,<div class = centerbox><div class = fixation>+</div></div>,none,500,practice,,,,,,,,,,,,654,32,850,0,stim,poldrack-single-stim,38,95017,0.0-3.0-35.0,go_nogo_deval,427,,<img class = center src='/static/experiments/go_nogo_deval/images/green_triangle.png'></img>,32,850,practice,green_triangle,go1,32,11,0,,,,,,,-1,-1,1400,0,ITI,poldrack-single-stim,39,96418,0.0-3.0-36.0,go_nogo_deval,427,,<div></div>,32,1400,practice,,,,,,,,,,,,-1,-1,500,0,prompt_fixation,poldrack-single-stim,40,96920,0.0-3.0-37.0,go_nogo_deval,427,,<div class = centerbox><div class = fixation>+</div></div>,none,500,practice,,,,,,,,,,,,520,32,850,0,stim,poldrack-single-stim,41,97772,0.0-3.0-38.0,go_nogo_deval,427,,<img class = center src='/static/experiments/go_nogo_deval/images/red_rhombus.png'></img>,32,850,practice,red_rhombus,go2,32,12,0,,,,,,,-1,-1,1400,0,ITI,poldrack-single-stim,42,99174,0.0-3.0-39.0,go_nogo_deval,427,,<div></div>,32,1400,practice,,,,,,,,,,,,-1,-1,500,0,prompt_fixation,poldrack-single-stim,43,99675,0.0-3.0-40.0,go_nogo_deval,427,,<div class = centerbox><div class = fixation>+</div></div>,none,500,practice,,,,,,,,,,,,567,32,850,0,stim,poldrack-single-stim,44,100527,0.0-3.0-41.0,go_nogo_deval,427,,<img class = center src='/static/experiments/go_nogo_deval/images/green_triangle.png'></img>,32,850,practice,green_triangle,go1,32,13,0,,,,,,,-1,-1,1400,0,ITI,poldrack-single-stim,45,101929,0.0-3.0-42.0,go_nogo_deval,427,,<div></div>,32,1400,practice,,,,,,,,,,,,-1,-1,500,0,prompt_fixation,poldrack-single-stim,46,102432,0.0-3.0-43.0,go_nogo_deval,427,,<div class = centerbox><div class = fixation>+</div></div>,none,500,practice,,,,,,,,,,,,-1,-1,850,0,stim,poldrack-single-stim,47,103284,0.0-3.0-44.0,go_nogo_deval,427,,<img class = center src='/static/experiments/go_nogo_deval/images/blue_pentagon.png'></img>,32,850,practice,blue_pentagon,nogo2,-1,14,0,,,,,,,-1,-1,1400,0,ITI,poldrack-single-stim,48,104686,0.0-3.0-45.0,go_nogo_deval,427,,<div></div>,32,1400,practice,,,,,,,,,,,,-1,-1,500,0,prompt_fixation,poldrack-single-stim,49,105188,0.0-3.0-46.0,go_nogo_deval,427,,<div class = centerbox><div class = fixation>+</div></div>,none,500,practice,,,,,,,,,,,,-1,-1,850,0,stim,poldrack-single-stim,50,106040,0.0-3.0-47.0,go_nogo_deval,427,,<img class = center src='/static/experiments/go_nogo_deval/images/blue_pentagon.png'></img>,32,850,practice,blue_pentagon,nogo2,-1,15,0,,,,,,,-1,-1,1400,0,ITI,poldrack-single-stim,51,107441,0.0-3.0-48.0,go_nogo_deval,427,,<div></div>,32,1400,practice,,,,,,,,,,,,-1,-1,500,0,prompt_fixation,poldrack-single-stim,52,107943,0.0-3.0-49.0,go_nogo_deval,427,,<div class = centerbox><div class = fixation>+</div></div>,none,500,practice,,,,,,,,,,,,670,32,850,0,stim,poldrack-single-stim,53,108794,0.0-3.0-50.0,go_nogo_deval,427,,<img class = center src='/static/experiments/go_nogo_deval/images/green_triangle.png'></img>,32,850,practice,green_triangle,go1,32,16,0,,,,,,,-1,-1,1400,0,ITI,poldrack-single-stim,54,110196,0.0-3.0-51.0,go_nogo_deval,427,,<div></div>,32,1400,practice,,,,,,,,,,,,-1,-1,500,0,prompt_fixation,poldrack-single-stim,55,110697,0.0-3.0-52.0,go_nogo_deval,427,,<div class = centerbox><div class = fixation>+</div></div>,none,500,practice,,,,,,,,,,,,-1,-1,850,0,stim,poldrack-single-stim,56,111550,0.0-3.0-53.0,go_nogo_deval,427,,<img class = center src='/static/experiments/go_nogo_deval/images/purple_circle.png'></img>,32,850,practice,purple_circle,nogo1,-1,17,0,,,,,,,-1,-1,1400,0,ITI,poldrack-single-stim,57,112951,0.0-3.0-54.0,go_nogo_deval,427,,<div></div>,32,1400,practice,,,,,,,,,,,,18813,13,18813,0,practice-no-stop-feedback,poldrack-single-stim,58,131766,0.0-4.0,go_nogo_deval,427,,<div class = centerbox><p class = block-text><br>Please take this time to read your feedback and to take a short break! Press enter to continue</p><p class = block-text><strong>Average reaction time:  607 ms. Accuracy: 89%</strong></p><p class = block-text>Done with this practice.</p></div>,13,18813,,,,,,,,,,,,,25751,13,25751,0,main_stop_intro_phase3,poldrack-single-stim,59,157517,0.0-5.0,go_nogo_deval,427,,"<div class = centerbox><p class = block-text>We will now start the main phase of the experiment.<br><br>These trials are the same as the trials that you have just completed. <br><br>The rules for each shape are as follows:  <br><ul list-text><li>triangle: spacebar</li><li>rhombus: spacebar</li><li>circle: no response</li><li>pentagon: no response</li></ul></p><p class = block-text>Remember these rules before you proceed, as they will no longer be presented during the trial.</p><p class = block-text>Press <strong> enter</strong> to begin.</p></div>",13,25751,,,,,,,,,,,,,6490,13,6490,0,practice-no-stop-feedback,poldrack-single-stim,60,164008,0.0-6.0-0.0,go_nogo_deval,427,,"<div class = centerbox><p class = block-text>We will now start with a test session. In this test, concentrate on responding quickly and accurately to each stimuli unless it requires no response.</p><p class = block-text>Press enter to continue.</p></div>",13,6490,,,,,,,,,,,,,-1,-1,500,0,fixation,poldrack-single-stim,61,164510,0.0-6.0-1.0,go_nogo_deval,427,,<div class = centerbox><div class = fixation>+</div></div>,none,500,test,,,,,,,,,,,,-1,-1,850,0,stim,poldrack-single-stim,62,165361,0.0-6.0-2.0,go_nogo_deval,427,,<img class = center src='/static/experiments/go_nogo_deval/images/blue_pentagon.png'></img>,32,850,test,blue_pentagon,nogo2,-1,0,0,,,,,,,-1,-1,1400,0,ITI,poldrack-single-stim,63,166763,0.0-6.0-3.0,go_nogo_deval,427,,<div></div>,32,1400,test,,,,,,,,,,,,-1,-1,500,0,fixation,poldrack-single-stim,64,167265,0.0-6.0-4.0,go_nogo_deval,427,,<div class = centerbox><div class = fixation>+</div></div>,none,500,test,,,,,,,,,,,,411,32,850,0,stim,poldrack-single-stim,65,168116,0.0-6.0-5.0,go_nogo_deval,427,,<img class = center src='/static/experiments/go_nogo_deval/images/green_triangle.png'></img>,32,850,test,green_triangle,go1,32,1,0,,,,,,,-1,-1,1400,0,ITI,poldrack-single-stim,66,169517,0.0-6.0-6.0,go_nogo_deval,427,,<div></div>,32,1400,test,,,,,,,,,,,,-1,-1,500,0,fixation,poldrack-single-stim,67,170019,0.0-6.0-7.0,go_nogo_deval,427,,<div class = centerbox><div class = fixation>+</div></div>,none,500,test,,,,,,,,,,,,413,32,850,0,stim,poldrack-single-stim,68,170870,0.0-6.0-8.0,go_nogo_deval,427,,<img class = center src='/static/experiments/go_nogo_deval/images/red_rhombus.png'></img>,32,850,test,red_rhombus,go2,32,2,0,,,,,,,-1,-1,1400,0,ITI,poldrack-single-stim,69,172271,0.0-6.0-9.0,go_nogo_deval,427,,<div></div>,32,1400,test,,,,,,,,,,,,-1,-1,500,0,fixation,poldrack-single-stim,70,172772,0.0-6.0-10.0,go_nogo_deval,427,,<div class = centerbox><div class = fixation>+</div></div>,none,500,test,,,,,,,,,,,,314,32,850,0,stim,poldrack-single-stim,71,173623,0.0-6.0-11.0,go_nogo_deval,427,,<img class = center src='/static/experiments/go_nogo_deval/images/red_rhombus.png'></img>,32,850,test,red_rhombus,go2,32,3,0,,,,,,,-1,-1,1400,0,ITI,poldrack-single-stim,72,175025,0.0-6.0-12.0,go_nogo_deval,427,,<div></div>,32,1400,test,,,,,,,,,,,,-1,-1,500,0,fixation,poldrack-single-stim,73,175527,0.0-6.0-13.0,go_nogo_deval,427,,<div class = centerbox><div class = fixation>+</div></div>,none,500,test,,,,,,,,,,,,507,32,850,0,stim,poldrack-single-stim,74,176378,0.0-6.0-14.0,go_nogo_deval,427,,<img class = center src='/static/experiments/go_nogo_deval/images/green_triangle.png'></img>,32,850,test,green_triangle,go1,32,4,0,,,,,,,-1,-1,1400,0,ITI,poldrack-single-stim,75,177780,0.0-6.0-15.0,go_nogo_deval,427,,<div></div>,32,1400,test,,,,,,,,,,,,-1,-1,500,0,fixation,poldrack-single-stim,76,178281,0.0-6.0-16.0,go_nogo_deval,427,,<div class = centerbox><div class = fixation>+</div></div>,none,500,test,,,,,,,,,,,,611,32,850,0,stim,poldrack-single-stim,77,179133,0.0-6.0-17.0,go_nogo_deval,427,,<img class = center src='/static/experiments/go_nogo_deval/images/red_rhombus.png'></img>,32,850,test,red_rhombus,go2,32,5,0,,,,,,,-1,-1,1400,0,ITI,poldrack-single-stim,78,180535,0.0-6.0-18.0,go_nogo_deval,427,,<div></div>,32,1400,test,,,,,,,,,,,,-1,-1,500,0,fixation,poldrack-single-stim,79,181036,0.0-6.0-19.0,go_nogo_deval,427,,<div class = centerbox><div class = fixation>+</div></div>,none,500,test,,,,,,,,,,,,-1,-1,850,0,stim,poldrack-single-stim,80,181887,0.0-6.0-20.0,go_nogo_deval,427,,<img class = center src='/static/experiments/go_nogo_deval/images/purple_circle.png'></img>,32,850,test,purple_circle,nogo1,-1,6,0,,,,,,,-1,-1,1400,0,ITI,poldrack-single-stim,81,183289,0.0-6.0-21.0,go_nogo_deval,427,,<div></div>,32,1400,test,,,,,,,,,,,,-1,-1,500,0,fixation,poldrack-single-stim,82,183791,0.0-6.0-22.0,go_nogo_deval,427,,<div class = centerbox><div class = fixation>+</div></div>,none,500,test,,,,,,,,,,,,354,32,850,0,stim,poldrack-single-stim,83,184643,0.0-6.0-23.0,go_nogo_deval,427,,<img class = center src='/static/experiments/go_nogo_deval/images/red_rhombus.png'></img>,32,850,test,red_rhombus,go2,32,7,0,,,,,,,-1,-1,1400,0,ITI,poldrack-single-stim,84,186045,0.0-6.0-24.0,go_nogo_deval,427,,<div></div>,32,1400,test,,,,,,,,,,,,-1,-1,500,0,fixation,poldrack-single-stim,85,186547,0.0-6.0-25.0,go_nogo_deval,427,,<div class = centerbox><div class = fixation>+</div></div>,none,500,test,,,,,,,,,,,,-1,-1,850,0,stim,poldrack-single-stim,86,187399,0.0-6.0-26.0,go_nogo_deval,427,,<img class = center src='/static/experiments/go_nogo_deval/images/purple_circle.png'></img>,32,850,test,purple_circle,nogo1,-1,8,0,,,,,,,-1,-1,1400,0,ITI,poldrack-single-stim,87,188801,0.0-6.0-27.0,go_nogo_deval,427,,<div></div>,32,1400,test,,,,,,,,,,,,-1,-1,500,0,fixation,poldrack-single-stim,88,189302,0.0-6.0-28.0,go_nogo_deval,427,,<div class = centerbox><div class = fixation>+</div></div>,none,500,test,,,,,,,,,,,,-1,-1,850,0,stim,poldrack-single-stim,89,190153,0.0-6.0-29.0,go_nogo_deval,427,,<img class = center src='/static/experiments/go_nogo_deval/images/blue_pentagon.png'></img>,32,850,test,blue_pentagon,nogo2,-1,9,0,,,,,,,-1,-1,1400,0,ITI,poldrack-single-stim,90,191555,0.0-6.0-30.0,go_nogo_deval,427,,<div></div>,32,1400,test,,,,,,,,,,,,-1,-1,500,0,fixation,poldrack-single-stim,91,192057,0.0-6.0-31.0,go_nogo_deval,427,,<div class = centerbox><div class = fixation>+</div></div>,none,500,test,,,,,,,,,,,,313,32,850,0,stim,poldrack-single-stim,92,192909,0.0-6.0-32.0,go_nogo_deval,427,,<img class = center src='/static/experiments/go_nogo_deval/images/red_rhombus.png'></img>,32,850,test,red_rhombus,go2,32,10,0,,,,,,,-1,-1,1400,0,ITI,poldrack-single-stim,93,194311,0.0-6.0-33.0,go_nogo_deval,427,,<div></div>,32,1400,test,,,,,,,,,,,,-1,-1,500,0,fixation,poldrack-single-stim,94,194812,0.0-6.0-34.0,go_nogo_deval,427,,<div class = centerbox><div class = fixation>+</div></div>,none,500,test,,,,,,,,,,,,414,32,850,0,stim,poldrack-single-stim,95,195664,0.0-6.0-35.0,go_nogo_deval,427,,<img class = center src='/static/experiments/go_nogo_deval/images/green_triangle.png'></img>,32,850,test,green_triangle,go1,32,11,0,,,,,,,-1,-1,1400,0,ITI,poldrack-single-stim,96,197065,0.0-6.0-36.0,go_nogo_deval,427,,<div></div>,32,1400,test,,,,,,,,,,,,-1,-1,500,0,fixation,poldrack-single-stim,97,197567,0.0-6.0-37.0,go_nogo_deval,427,,<div class = centerbox><div class = fixation>+</div></div>,none,500,test,,,,,,,,,,,,381,32,850,0,stim,poldrack-single-stim,98,198419,0.0-6.0-38.0,go_nogo_deval,427,,<img class = center src='/static/experiments/go_nogo_deval/images/green_triangle.png'></img>,32,850,test,green_triangle,go1,32,12,0,,,,,,,-1,-1,1400,0,ITI,poldrack-single-stim,99,199821,0.0-6.0-39.0,go_nogo_deval,427,,<div></div>,32,1400,test,,,,,,,,,,,,-1,-1,500,0,fixation,poldrack-single-stim,100,200323,0.0-6.0-40.0,go_nogo_deval,427,,<div class = centerbox><div class = fixation>+</div></div>,none,500,test,,,,,,,,,,,,-1,-1,850,0,stim,poldrack-single-stim,101,201175,0.0-6.0-41.0,go_nogo_deval,427,,<img class = center src='/static/experiments/go_nogo_deval/images/blue_pentagon.png'></img>,32,850,test,blue_pentagon,nogo2,-1,13,0,,,,,,,-1,-1,1400,0,ITI,poldrack-single-stim,102,202577,0.0-6.0-42.0,go_nogo_deval,427,,<div></div>,32,1400,test,,,,,,,,,,,,-1,-1,500,0,fixation,poldrack-single-stim,103,203078,0.0-6.0-43.0,go_nogo_deval,427,,<div class = centerbox><div class = fixation>+</div></div>,none,500,test,,,,,,,,,,,,531,32,850,0,stim,poldrack-single-stim,104,203930,0.0-6.0-44.0,go_nogo_deval,427,,<img class = center src='/static/experiments/go_nogo_deval/images/red_rhombus.png'></img>,32,850,test,red_rhombus,go2,32,14,0,,,,,,,-1,-1,1400,0,ITI,poldrack-single-stim,105,205331,0.0-6.0-45.0,go_nogo_deval,427,,<div></div>,32,1400,test,,,,,,,,,,,,-1,-1,500,0,fixation,poldrack-single-stim,106,205832,0.0-6.0-46.0,go_nogo_deval,427,,<div class = centerbox><div class = fixation>+</div></div>,none,500,test,,,,,,,,,,,,442,32,850,0,stim,poldrack-single-stim,107,206683,0.0-6.0-47.0,go_nogo_deval,427,,<img class = center src='/static/experiments/go_nogo_deval/images/green_triangle.png'></img>,32,850,test,green_triangle,go1,32,15,0,,,,,,,-1,-1,1400,0,ITI,poldrack-single-stim,108,208086,0.0-6.0-48.0,go_nogo_deval,427,,<div></div>,32,1400,test,,,,,,,,,,,,-1,-1,500,0,fixation,poldrack-single-stim,109,208588,0.0-6.0-49.0,go_nogo_deval,427,,<div class = centerbox><div class = fixation>+</div></div>,none,500,test,,,,,,,,,,,,240,32,850,0,stim,poldrack-single-stim,110,209439,0.0-6.0-50.0,go_nogo_deval,427,,<img class = center src='/static/experiments/go_nogo_deval/images/green_triangle.png'></img>,32,850,test,green_triangle,go1,32,16,0,,,,,,,-1,-1,1400,0,ITI,poldrack-single-stim,111,210841,0.0-6.0-51.0,go_nogo_deval,427,,<div></div>,32,1400,test,,,,,,,,,,,,-1,-1,500,0,fixation,poldrack-single-stim,112,211342,0.0-6.0-52.0,go_nogo_deval,427,,<div class = centerbox><div class = fixation>+</div></div>,none,500,test,,,,,,,,,,,,434,32,850,0,stim,poldrack-single-stim,113,212194,0.0-6.0-53.0,go_nogo_deval,427,,<img class = center src='/static/experiments/go_nogo_deval/images/red_rhombus.png'></img>,32,850,test,red_rhombus,go2,32,17,0,,,,,,,-1,-1,1400,0,ITI,poldrack-single-stim,114,213595,0.0-6.0-54.0,go_nogo_deval,427,,<div></div>,32,1400,test,,,,,,,,,,,,-1,-1,500,0,fixation,poldrack-single-stim,115,214097,0.0-6.0-55.0,go_nogo_deval,427,,<div class = centerbox><div class = fixation>+</div></div>,none,500,test,,,,,,,,,,,,379,32,850,0,stim,poldrack-single-stim,116,214949,0.0-6.0-56.0,go_nogo_deval,427,,<img class = center src='/static/experiments/go_nogo_deval/images/red_rhombus.png'></img>,32,850,test,red_rhombus,go2,32,18,0,,,,,,,-1,-1,1400,0,ITI,poldrack-single-stim,117,216350,0.0-6.0-57.0,go_nogo_deval,427,,<div></div>,32,1400,test,,,,,,,,,,,,-1,-1,500,0,fixation,poldrack-single-stim,118,216851,0.0-6.0-58.0,go_nogo_deval,427,,<div class = centerbox><div class = fixation>+</div></div>,none,500,test,,,,,,,,,,,,403,32,850,0,stim,poldrack-single-stim,119,217702,0.0-6.0-59.0,go_nogo_deval,427,,<img class = center src='/static/experiments/go_nogo_deval/images/red_rhombus.png'></img>,32,850,test,red_rhombus,go2,32,19,0,,,,,,,-1,-1,1400,0,ITI,poldrack-single-stim,120,219104,0.0-6.0-60.0,go_nogo_deval,427,,<div></div>,32,1400,test,,,,,,,,,,,,-1,-1,500,0,fixation,poldrack-single-stim,121,219606,0.0-6.0-61.0,go_nogo_deval,427,,<div class = centerbox><div class = fixation>+</div></div>,none,500,test,,,,,,,,,,,,-1,-1,850,0,stim,poldrack-single-stim,122,220458,0.0-6.0-62.0,go_nogo_deval,427,,<img class = center src='/static/experiments/go_nogo_deval/images/purple_circle.png'></img>,32,850,test,purple_circle,nogo1,-1,20,0,,,,,,,-1,-1,1400,0,ITI,poldrack-single-stim,123,221859,0.0-6.0-63.0,go_nogo_deval,427,,<div></div>,32,1400,test,,,,,,,,,,,,-1,-1,500,0,fixation,poldrack-single-stim,124,222361,0.0-6.0-64.0,go_nogo_deval,427,,<div class = centerbox><div class = fixation>+</div></div>,none,500,test,,,,,,,,,,,,485,32,850,0,stim,poldrack-single-stim,125,223212,0.0-6.0-65.0,go_nogo_deval,427,,<img class = center src='/static/experiments/go_nogo_deval/images/green_triangle.png'></img>,32,850,test,green_triangle,go1,32,21,0,,,,,,,-1,-1,1400,0,ITI,poldrack-single-stim,126,224614,0.0-6.0-66.0,go_nogo_deval,427,,<div></div>,32,1400,test,,,,,,,,,,,,-1,-1,500,0,fixation,poldrack-single-stim,127,225115,0.0-6.0-67.0,go_nogo_deval,427,,<div class = centerbox><div class = fixation>+</div></div>,none,500,test,,,,,,,,,,,,476,32,850,0,stim,poldrack-single-stim,128,225967,0.0-6.0-68.0,go_nogo_deval,427,,<img class = center src='/static/experiments/go_nogo_deval/images/red_rhombus.png'></img>,32,850,test,red_rhombus,go2,32,22,0,,,,,,,-1,-1,1400,0,ITI,poldrack-single-stim,129,227368,0.0-6.0-69.0,go_nogo_deval,427,,<div></div>,32,1400,test,,,,,,,,,,,,-1,-1,500,0,fixation,poldrack-single-stim,130,227869,0.0-6.0-70.0,go_nogo_deval,427,,<div class = centerbox><div class = fixation>+</div></div>,none,500,test,,,,,,,,,,,,-1,-1,850,0,stim,poldrack-single-stim,131,228720,0.0-6.0-71.0,go_nogo_deval,427,,<img class = center src='/static/experiments/go_nogo_deval/images/blue_pentagon.png'></img>,32,850,test,blue_pentagon,nogo2,-1,23,0,,,,,,,-1,-1,1400,0,ITI,poldrack-single-stim,132,230123,0.0-6.0-72.0,go_nogo_deval,427,,<div></div>,32,1400,test,,,,,,,,,,,,-1,-1,500,0,fixation,poldrack-single-stim,133,230624,0.0-6.0-73.0,go_nogo_deval,427,,<div class = centerbox><div class = fixation>+</div></div>,none,500,test,,,,,,,,,,,,648,32,850,0,stim,poldrack-single-stim,134,231476,0.0-6.0-74.0,go_nogo_deval,427,,<img class = center src='/static/experiments/go_nogo_deval/images/green_triangle.png'></img>,32,850,test,green_triangle,go1,32,24,0,,,,,,,-1,-1,1400,0,ITI,poldrack-single-stim,135,232878,0.0-6.0-75.0,go_nogo_deval,427,,<div></div>,32,1400,test,,,,,,,,,,,,-1,-1,500,0,fixation,poldrack-single-stim,136,233379,0.0-6.0-76.0,go_nogo_deval,427,,<div class = centerbox><div class = fixation>+</div></div>,none,500,test,,,,,,,,,,,,-1,-1,850,0,stim,poldrack-single-stim,137,234231,0.0-6.0-77.0,go_nogo_deval,427,,<img class = center src='/static/experiments/go_nogo_deval/images/blue_pentagon.png'></img>,32,850,test,blue_pentagon,nogo2,-1,25,0,,,,,,,-1,-1,1400,0,ITI,poldrack-single-stim,138,235633,0.0-6.0-78.0,go_nogo_deval,427,,<div></div>,32,1400,test,,,,,,,,,,,,-1,-1,500,0,fixation,poldrack-single-stim,139,236135,0.0-6.0-79.0,go_nogo_deval,427,,<div class = centerbox><div class = fixation>+</div></div>,none,500,test,,,,,,,,,,,,-1,-1,850,0,stim,poldrack-single-stim,140,236986,0.0-6.0-80.0,go_nogo_deval,427,,<img class = center src='/static/experiments/go_nogo_deval/images/purple_circle.png'></img>,32,850,test,purple_circle,nogo1,-1,26,0,,,,,,,-1,-1,1400,0,ITI,poldrack-single-stim,141,238388,0.0-6.0-81.0,go_nogo_deval,427,,<div></div>,32,1400,test,,,,,,,,,,,,-1,-1,500,0,fixation,poldrack-single-stim,142,238890,0.0-6.0-82.0,go_nogo_deval,427,,<div class = centerbox><div class = fixation>+</div></div>,none,500,test,,,,,,,,,,,,-1,-1,850,0,stim,poldrack-single-stim,143,239742,0.0-6.0-83.0,go_nogo_deval,427,,<img class = center src='/static/experiments/go_nogo_deval/images/purple_circle.png'></img>,32,850,test,purple_circle,nogo1,-1,27,0,,,,,,,-1,-1,1400,0,ITI,poldrack-single-stim,144,241143,0.0-6.0-84.0,go_nogo_deval,427,,<div></div>,32,1400,test,,,,,,,,,,,,-1,-1,500,0,fixation,poldrack-single-stim,145,241645,0.0-6.0-85.0,go_nogo_deval,427,,<div class = centerbox><div class = fixation>+</div></div>,none,500,test,,,,,,,,,,,,-1,-1,850,0,stim,poldrack-single-stim,146,242497,0.0-6.0-86.0,go_nogo_deval,427,,<img class = center src='/static/experiments/go_nogo_deval/images/red_rhombus.png'></img>,32,850,test,red_rhombus,go2,32,28,0,,,,,,,48,32,1400,0,ITI,poldrack-single-stim,147,243899,0.0-6.0-87.0,go_nogo_deval,427,,<div></div>,32,1400,test,,,,,,,,,,,,-1,-1,500,0,fixation,poldrack-single-stim,148,244400,0.0-6.0-88.0,go_nogo_deval,427,,<div class = centerbox><div class = fixation>+</div></div>,none,500,test,,,,,,,,,,,,326,32,850,0,stim,poldrack-single-stim,149,245251,0.0-6.0-89.0,go_nogo_deval,427,,<img class = center src='/static/experiments/go_nogo_deval/images/red_rhombus.png'></img>,32,850,test,red_rhombus,go2,32,29,0,,,,,,,-1,-1,1400,0,ITI,poldrack-single-stim,150,246653,0.0-6.0-90.0,go_nogo_deval,427,,<div></div>,32,1400,test,,,,,,,,,,,,-1,-1,500,0,fixation,poldrack-single-stim,151,247154,0.0-6.0-91.0,go_nogo_deval,427,,<div class = centerbox><div class = fixation>+</div></div>,none,500,test,,,,,,,,,,,,-1,-1,850,0,stim,poldrack-single-stim,152,248006,0.0-6.0-92.0,go_nogo_deval,427,,<img class = center src='/static/experiments/go_nogo_deval/images/blue_pentagon.png'></img>,32,850,test,blue_pentagon,nogo2,-1,30,0,,,,,,,-1,-1,1400,0,ITI,poldrack-single-stim,153,249408,0.0-6.0-93.0,go_nogo_deval,427,,<div></div>,32,1400,test,,,,,,,,,,,,-1,-1,500,0,fixation,poldrack-single-stim,154,249910,0.0-6.0-94.0,go_nogo_deval,427,,<div class = centerbox><div class = fixation>+</div></div>,none,500,test,,,,,,,,,,,,-1,-1,850,0,stim,poldrack-single-stim,155,250762,0.0-6.0-95.0,go_nogo_deval,427,,<img class = center src='/static/experiments/go_nogo_deval/images/purple_circle.png'></img>,32,850,test,purple_circle,nogo1,-1,31,0,,,,,,,-1,-1,1400,0,ITI,poldrack-single-stim,156,252164,0.0-6.0-96.0,go_nogo_deval,427,,<div></div>,32,1400,test,,,,,,,,,,,,-1,-1,500,0,fixation,poldrack-single-stim,157,252664,0.0-6.0-97.0,go_nogo_deval,427,,<div class = centerbox><div class = fixation>+</div></div>,none,500,test,,,,,,,,,,,,500,32,850,0,stim,poldrack-single-stim,158,253516,0.0-6.0-98.0,go_nogo_deval,427,,<img class = center src='/static/experiments/go_nogo_deval/images/red_rhombus.png'></img>,32,850,test,red_rhombus,go2,32,32,0,,,,,,,-1,-1,1400,0,ITI,poldrack-single-stim,159,254918,0.0-6.0-99.0,go_nogo_deval,427,,<div></div>,32,1400,test,,,,,,,,,,,,-1,-1,500,0,fixation,poldrack-single-stim,160,255420,0.0-6.0-100.0,go_nogo_deval,427,,<div class = centerbox><div class = fixation>+</div></div>,none,500,test,,,,,,,,,,,,-1,-1,850,0,stim,poldrack-single-stim,161,256272,0.0-6.0-101.0,go_nogo_deval,427,,<img class = center src='/static/experiments/go_nogo_deval/images/purple_circle.png'></img>,32,850,test,purple_circle,nogo1,-1,33,0,,,,,,,-1,-1,1400,0,ITI,poldrack-single-stim,162,257673,0.0-6.0-102.0,go_nogo_deval,427,,<div></div>,32,1400,test,,,,,,,,,,,,-1,-1,500,0,fixation,poldrack-single-stim,163,258175,0.0-6.0-103.0,go_nogo_deval,427,,<div class = centerbox><div class = fixation>+</div></div>,none,500,test,,,,,,,,,,,,-1,-1,850,0,stim,poldrack-single-stim,164,259027,0.0-6.0-104.0,go_nogo_deval,427,,<img class = center src='/static/experiments/go_nogo_deval/images/blue_pentagon.png'></img>,32,850,test,blue_pentagon,nogo2,-1,34,0,,,,,,,-1,-1,1400,0,ITI,poldrack-single-stim,165,260428,0.0-6.0-105.0,go_nogo_deval,427,,<div></div>,32,1400,test,,,,,,,,,,,,-1,-1,500,0,fixation,poldrack-single-stim,166,260930,0.0-6.0-106.0,go_nogo_deval,427,,<div class = centerbox><div class = fixation>+</div></div>,none,500,test,,,,,,,,,,,,481,32,850,0,stim,poldrack-single-stim,167,261781,0.0-6.0-107.0,go_nogo_deval,427,,<img class = center src='/static/experiments/go_nogo_deval/images/green_triangle.png'></img>,32,850,test,green_triangle,go1,32,35,0,,,,,,,-1,-1,1400,0,ITI,poldrack-single-stim,168,263182,0.0-6.0-108.0,go_nogo_deval,427,,<div></div>,32,1400,test,,,,,,,,,,,,-1,-1,500,0,fixation,poldrack-single-stim,169,263683,0.0-6.0-109.0,go_nogo_deval,427,,<div class = centerbox><div class = fixation>+</div></div>,none,500,test,,,,,,,,,,,,371,32,850,0,stim,poldrack-single-stim,170,264535,0.0-6.0-110.0,go_nogo_deval,427,,<img class = center src='/static/experiments/go_nogo_deval/images/green_triangle.png'></img>,32,850,test,green_triangle,go1,32,36,0,,,,,,,-1,-1,1400,0,ITI,poldrack-single-stim,171,265937,0.0-6.0-111.0,go_nogo_deval,427,,<div></div>,32,1400,test,,,,,,,,,,,,-1,-1,500,0,fixation,poldrack-single-stim,172,266439,0.0-6.0-112.0,go_nogo_deval,427,,<div class = centerbox><div class = fixation>+</div></div>,none,500,test,,,,,,,,,,,,339,32,850,0,stim,poldrack-single-stim,173,267290,0.0-6.0-113.0,go_nogo_deval,427,,<img class = center src='/static/experiments/go_nogo_deval/images/green_triangle.png'></img>,32,850,test,green_triangle,go1,32,37,0,,,,,,,-1,-1,1400,0,ITI,poldrack-single-stim,174,268691,0.0-6.0-114.0,go_nogo_deval,427,,<div></div>,32,1400,test,,,,,,,,,,,,-1,-1,500,0,fixation,poldrack-single-stim,175,269193,0.0-6.0-115.0,go_nogo_deval,427,,<div class = centerbox><div class = fixation>+</div></div>,none,500,test,,,,,,,,,,,,341,32,850,0,stim,poldrack-single-stim,176,270045,0.0-6.0-116.0,go_nogo_deval,427,,<img class = center src='/static/experiments/go_nogo_deval/images/green_triangle.png'></img>,32,850,test,green_triangle,go1,32,38,0,,,,,,,-1,-1,1400,0,ITI,poldrack-single-stim,177,271447,0.0-6.0-117.0,go_nogo_deval,427,,<div></div>,32,1400,test,,,,,,,,,,,,-1,-1,500,0,fixation,poldrack-single-stim,178,271948,0.0-6.0-118.0,go_nogo_deval,427,,<div class = centerbox><div class = fixation>+</div></div>,none,500,test,,,,,,,,,,,,342,32,850,0,stim,poldrack-single-stim,179,272799,0.0-6.0-119.0,go_nogo_deval,427,,<img class = center src='/static/experiments/go_nogo_deval/images/green_triangle.png'></img>,32,850,test,green_triangle,go1,32,39,0,,,,,,,-1,-1,1400,0,ITI,poldrack-single-stim,180,274201,0.0-6.0-120.0,go_nogo_deval,427,,<div></div>,32,1400,test,,,,,,,,,,,,-1,-1,500,0,fixation,poldrack-single-stim,181,274703,0.0-6.0-121.0,go_nogo_deval,427,,<div class = centerbox><div class = fixation>+</div></div>,none,500,test,,,,,,,,,,,,-1,-1,850,0,stim,poldrack-single-stim,182,275555,0.0-6.0-122.0,go_nogo_deval,427,,<img class = center src='/static/experiments/go_nogo_deval/images/purple_circle.png'></img>,32,850,test,purple_circle,nogo1,-1,40,0,,,,,,,-1,-1,1400,0,ITI,poldrack-single-stim,183,276957,0.0-6.0-123.0,go_nogo_deval,427,,<div></div>,32,1400,test,,,,,,,,,,,,-1,-1,500,0,fixation,poldrack-single-stim,184,277459,0.0-6.0-124.0,go_nogo_deval,427,,<div class = centerbox><div class = fixation>+</div></div>,none,500,test,,,,,,,,,,,,411,32,850,0,stim,poldrack-single-stim,185,278310,0.0-6.0-125.0,go_nogo_deval,427,,<img class = center src='/static/experiments/go_nogo_deval/images/red_rhombus.png'></img>,32,850,test,red_rhombus,go2,32,41,0,,,,,,,-1,-1,1400,0,ITI,poldrack-single-stim,186,279711,0.0-6.0-126.0,go_nogo_deval,427,,<div></div>,32,1400,test,,,,,,,,,,,,-1,-1,500,0,fixation,poldrack-single-stim,187,280213,0.0-6.0-127.0,go_nogo_deval,427,,<div class = centerbox><div class = fixation>+</div></div>,none,500,test,,,,,,,,,,,,503,32,850,0,stim,poldrack-single-stim,188,281065,0.0-6.0-128.0,go_nogo_deval,427,,<img class = center src='/static/experiments/go_nogo_deval/images/green_triangle.png'></img>,32,850,test,green_triangle,go1,32,42,0,,,,,,,-1,-1,1400,0,ITI,poldrack-single-stim,189,282466,0.0-6.0-129.0,go_nogo_deval,427,,<div></div>,32,1400,test,,,,,,,,,,,,-1,-1,500,0,fixation,poldrack-single-stim,190,282968,0.0-6.0-130.0,go_nogo_deval,427,,<div class = centerbox><div class = fixation>+</div></div>,none,500,test,,,,,,,,,,,,404,32,850,0,stim,poldrack-single-stim,191,283818,0.0-6.0-131.0,go_nogo_deval,427,,<img class = center src='/static/experiments/go_nogo_deval/images/red_rhombus.png'></img>,32,850,test,red_rhombus,go2,32,43,0,,,,,,,-1,-1,1400,0,ITI,poldrack-single-stim,192,285220,0.0-6.0-132.0,go_nogo_deval,427,,<div></div>,32,1400,test,,,,,,,,,,,,-1,-1,500,0,fixation,poldrack-single-stim,193,285722,0.0-6.0-133.0,go_nogo_deval,427,,<div class = centerbox><div class = fixation>+</div></div>,none,500,test,,,,,,,,,,,,372,32,850,0,stim,poldrack-single-stim,194,286574,0.0-6.0-134.0,go_nogo_deval,427,,<img class = center src='/static/experiments/go_nogo_deval/images/green_triangle.png'></img>,32,850,test,green_triangle,go1,32,44,0,,,,,,,-1,-1,1400,0,ITI,poldrack-single-stim,195,287974,0.0-6.0-135.0,go_nogo_deval,427,,<div></div>,32,1400,test,,,,,,,,,,,,-1,-1,500,0,fixation,poldrack-single-stim,196,288476,0.0-6.0-136.0,go_nogo_deval,427,,<div class = centerbox><div class = fixation>+</div></div>,none,500,test,,,,,,,,,,,,-1,-1,850,0,stim,poldrack-single-stim,197,289327,0.0-6.0-137.0,go_nogo_deval,427,,<img class = center src='/static/experiments/go_nogo_deval/images/blue_pentagon.png'></img>,32,850,test,blue_pentagon,nogo2,-1,45,0,,,,,,,-1,-1,1400,0,ITI,poldrack-single-stim,198,290729,0.0-6.0-138.0,go_nogo_deval,427,,<div></div>,32,1400,test,,,,,,,,,,,,-1,-1,500,0,fixation,poldrack-single-stim,199,291231,0.0-6.0-139.0,go_nogo_deval,427,,<div class = centerbox><div class = fixation>+</div></div>,none,500,test,,,,,,,,,,,,331,32,850,0,stim,poldrack-single-stim,200,292082,0.0-6.0-140.0,go_nogo_deval,427,,<img class = center src='/static/experiments/go_nogo_deval/images/green_triangle.png'></img>,32,850,test,green_triangle,go1,32,46,0,,,,,,,-1,-1,1400,0,ITI,poldrack-single-stim,201,293483,0.0-6.0-141.0,go_nogo_deval,427,,<div></div>,32,1400,test,,,,,,,,,,,,-1,-1,500,0,fixation,poldrack-single-stim,202,293985,0.0-6.0-142.0,go_nogo_deval,427,,<div class = centerbox><div class = fixation>+</div></div>,none,500,test,,,,,,,,,,,,344,32,850,0,stim,poldrack-single-stim,203,294836,0.0-6.0-143.0,go_nogo_deval,427,,<img class = center src='/static/experiments/go_nogo_deval/images/red_rhombus.png'></img>,32,850,test,red_rhombus,go2,32,47,0,,,,,,,-1,-1,1400,0,ITI,poldrack-single-stim,204,296238,0.0-6.0-144.0,go_nogo_deval,427,,<div></div>,32,1400,test,,,,,,,,,,,,13974,13,13974,0,practice-no-stop-feedback,poldrack-single-stim,205,310215,0.0-6.1-0.1,go_nogo_deval,427,,<div class = centerbox><p class = block-text><br>Please take this time to read your feedback and to take a short break! Press enter to continue</p><p class = block-text><strong>Average reaction time:  414 ms. Accuracy: 98%</strong></p></div>,13,13974,,,,,,,,,,,,,-1,-1,500,0,fixation,poldrack-single-stim,206,310717,0.0-6.1-1.1,go_nogo_deval,427,,<div class = centerbox><div class = fixation>+</div></div>,none,500,test,,,,,,,,,,,,498,32,850,0,stim,poldrack-single-stim,207,311569,0.0-6.1-2.1,go_nogo_deval,427,,<img class = center src='/static/experiments/go_nogo_deval/images/green_triangle.png'></img>,32,850,test,green_triangle,go1,32,0,1,,,,,,,-1,-1,1400,0,ITI,poldrack-single-stim,208,312970,0.0-6.1-3.1,go_nogo_deval,427,,<div></div>,32,1400,test,,,,,,,,,,,,-1,-1,500,0,fixation,poldrack-single-stim,209,313471,0.0-6.1-4.1,go_nogo_deval,427,,<div class = centerbox><div class = fixation>+</div></div>,none,500,test,,,,,,,,,,,,-1,-1,850,0,stim,poldrack-single-stim,210,314322,0.0-6.1-5.1,go_nogo_deval,427,,<img class = center src='/static/experiments/go_nogo_deval/images/blue_pentagon.png'></img>,32,850,test,blue_pentagon,nogo2,-1,1,1,,,,,,,-1,-1,1400,0,ITI,poldrack-single-stim,211,315724,0.0-6.1-6.1,go_nogo_deval,427,,<div></div>,32,1400,test,,,,,,,,,,,,-1,-1,500,0,fixation,poldrack-single-stim,212,316225,0.0-6.1-7.1,go_nogo_deval,427,,<div class = centerbox><div class = fixation>+</div></div>,none,500,test,,,,,,,,,,,,378,32,850,0,stim,poldrack-single-stim,213,317076,0.0-6.1-8.1,go_nogo_deval,427,,<img class = center src='/static/experiments/go_nogo_deval/images/green_triangle.png'></img>,32,850,test,green_triangle,go1,32,2,1,,,,,,,-1,-1,1400,0,ITI,poldrack-single-stim,214,318478,0.0-6.1-9.1,go_nogo_deval,427,,<div></div>,32,1400,test,,,,,,,,,,,,-1,-1,500,0,fixation,poldrack-single-stim,215,318980,0.0-6.1-10.1,go_nogo_deval,427,,<div class = centerbox><div class = fixation>+</div></div>,none,500,test,,,,,,,,,,,,-1,-1,850,0,stim,poldrack-single-stim,216,319831,0.0-6.1-11.1,go_nogo_deval,427,,<img class = center src='/static/experiments/go_nogo_deval/images/blue_pentagon.png'></img>,32,850,test,blue_pentagon,nogo2,-1,3,1,,,,,,,-1,-1,1400,0,ITI,poldrack-single-stim,217,321233,0.0-6.1-12.1,go_nogo_deval,427,,<div></div>,32,1400,test,,,,,,,,,,,,-1,-1,500,0,fixation,poldrack-single-stim,218,321735,0.0-6.1-13.1,go_nogo_deval,427,,<div class = centerbox><div class = fixation>+</div></div>,none,500,test,,,,,,,,,,,,360,32,850,0,stim,poldrack-single-stim,219,322587,0.0-6.1-14.1,go_nogo_deval,427,,<img class = center src='/static/experiments/go_nogo_deval/images/green_triangle.png'></img>,32,850,test,green_triangle,go1,32,4,1,,,,,,,-1,-1,1400,0,ITI,poldrack-single-stim,220,323987,0.0-6.1-15.1,go_nogo_deval,427,,<div></div>,32,1400,test,,,,,,,,,,,,-1,-1,500,0,fixation,poldrack-single-stim,221,324489,0.0-6.1-16.1,go_nogo_deval,427,,<div class = centerbox><div class = fixation>+</div></div>,none,500,test,,,,,,,,,,,,373,32,850,0,stim,poldrack-single-stim,222,325341,0.0-6.1-17.1,go_nogo_deval,427,,<img class = center src='/static/experiments/go_nogo_deval/images/red_rhombus.png'></img>,32,850,test,red_rhombus,go2,32,5,1,,,,,,,-1,-1,1400,0,ITI,poldrack-single-stim,223,326743,0.0-6.1-18.1,go_nogo_deval,427,,<div></div>,32,1400,test,,,,,,,,,,,,-1,-1,500,0,fixation,poldrack-single-stim,224,327243,0.0-6.1-19.1,go_nogo_deval,427,,<div class = centerbox><div class = fixation>+</div></div>,none,500,test,,,,,,,,,,,,-1,-1,850,0,stim,poldrack-single-stim,225,328095,0.0-6.1-20.1,go_nogo_deval,427,,<img class = center src='/static/experiments/go_nogo_deval/images/blue_pentagon.png'></img>,32,850,test,blue_pentagon,nogo2,-1,6,1,,,,,,,-1,-1,1400,0,ITI,poldrack-single-stim,226,329496,0.0-6.1-21.1,go_nogo_deval,427,,<div></div>,32,1400,test,,,,,,,,,,,,-1,-1,500,0,fixation,poldrack-single-stim,227,329998,0.0-6.1-22.1,go_nogo_deval,427,,<div class = centerbox><div class = fixation>+</div></div>,none,500,test,,,,,,,,,,,,286,32,850,0,stim,poldrack-single-stim,228,330848,0.0-6.1-23.1,go_nogo_deval,427,,<img class = center src='/static/experiments/go_nogo_deval/images/red_rhombus.png'></img>,32,850,test,red_rhombus,go2,32,7,1,,,,,,,-1,-1,1400,0,ITI,poldrack-single-stim,229,332249,0.0-6.1-24.1,go_nogo_deval,427,,<div></div>,32,1400,test,,,,,,,,,,,,-1,-1,500,0,fixation,poldrack-single-stim,230,332751,0.0-6.1-25.1,go_nogo_deval,427,,<div class = centerbox><div class = fixation>+</div></div>,none,500,test,,,,,,,,,,,,492,32,850,0,stim,poldrack-single-stim,231,333602,0.0-6.1-26.1,go_nogo_deval,427,,<img class = center src='/static/experiments/go_nogo_deval/images/green_triangle.png'></img>,32,850,test,green_triangle,go1,32,8,1,,,,,,,-1,-1,1400,0,ITI,poldrack-single-stim,232,335004,0.0-6.1-27.1,go_nogo_deval,427,,<div></div>,32,1400,test,,,,,,,,,,,,-1,-1,500,0,fixation,poldrack-single-stim,233,335506,0.0-6.1-28.1,go_nogo_deval,427,,<div class = centerbox><div class = fixation>+</div></div>,none,500,test,,,,,,,,,,,,358,32,850,0,stim,poldrack-single-stim,234,336357,0.0-6.1-29.1,go_nogo_deval,427,,<img class = center src='/static/experiments/go_nogo_deval/images/green_triangle.png'></img>,32,850,test,green_triangle,go1,32,9,1,,,,,,,-1,-1,1400,0,ITI,poldrack-single-stim,235,337759,0.0-6.1-30.1,go_nogo_deval,427,,<div></div>,32,1400,test,,,,,,,,,,,,-1,-1,500,0,fixation,poldrack-single-stim,236,338261,0.0-6.1-31.1,go_nogo_deval,427,,<div class = centerbox><div class = fixation>+</div></div>,none,500,test,,,,,,,,,,,,-1,-1,850,0,stim,poldrack-single-stim,237,339113,0.0-6.1-32.1,go_nogo_deval,427,,<img class = center src='/static/experiments/go_nogo_deval/images/purple_circle.png'></img>,32,850,test,purple_circle,nogo1,-1,10,1,,,,,,,-1,-1,1400,0,ITI,poldrack-single-stim,238,340513,0.0-6.1-33.1,go_nogo_deval,427,,<div></div>,32,1400,test,,,,,,,,,,,,-1,-1,500,0,fixation,poldrack-single-stim,239,341015,0.0-6.1-34.1,go_nogo_deval,427,,<div class = centerbox><div class = fixation>+</div></div>,none,500,test,,,,,,,,,,,,485,32,850,0,stim,poldrack-single-stim,240,341867,0.0-6.1-35.1,go_nogo_deval,427,,<img class = center src='/static/experiments/go_nogo_deval/images/green_triangle.png'></img>,32,850,test,green_triangle,go1,32,11,1,,,,,,,-1,-1,1400,0,ITI,poldrack-single-stim,241,343269,0.0-6.1-36.1,go_nogo_deval,427,,<div></div>,32,1400,test,,,,,,,,,,,,-1,-1,500,0,fixation,poldrack-single-stim,242,343770,0.0-6.1-37.1,go_nogo_deval,427,,<div class = centerbox><div class = fixation>+</div></div>,none,500,test,,,,,,,,,,,,-1,-1,850,0,stim,poldrack-single-stim,243,344622,0.0-6.1-38.1,go_nogo_deval,427,,<img class = center src='/static/experiments/go_nogo_deval/images/purple_circle.png'></img>,32,850,test,purple_circle,nogo1,-1,12,1,,,,,,,-1,-1,1400,0,ITI,poldrack-single-stim,244,346024,0.0-6.1-39.1,go_nogo_deval,427,,<div></div>,32,1400,test,,,,,,,,,,,,-1,-1,500,0,fixation,poldrack-single-stim,245,346526,0.0-6.1-40.1,go_nogo_deval,427,,<div class = centerbox><div class = fixation>+</div></div>,none,500,test,,,,,,,,,,,,409,32,850,0,stim,poldrack-single-stim,246,347378,0.0-6.1-41.1,go_nogo_deval,427,,<img class = center src='/static/experiments/go_nogo_deval/images/green_triangle.png'></img>,32,850,test,green_triangle,go1,32,13,1,,,,,,,-1,-1,1400,0,ITI,poldrack-single-stim,247,348779,0.0-6.1-42.1,go_nogo_deval,427,,<div></div>,32,1400,test,,,,,,,,,,,,-1,-1,500,0,fixation,poldrack-single-stim,248,349280,0.0-6.1-43.1,go_nogo_deval,427,,<div class = centerbox><div class = fixation>+</div></div>,none,500,test,,,,,,,,,,,,309,32,850,0,stim,poldrack-single-stim,249,350132,0.0-6.1-44.1,go_nogo_deval,427,,<img class = center src='/static/experiments/go_nogo_deval/images/green_triangle.png'></img>,32,850,test,green_triangle,go1,32,14,1,,,,,,,-1,-1,1400,0,ITI,poldrack-single-stim,250,351533,0.0-6.1-45.1,go_nogo_deval,427,,<div></div>,32,1400,test,,,,,,,,,,,,-1,-1,500,0,fixation,poldrack-single-stim,251,352035,0.0-6.1-46.1,go_nogo_deval,427,,<div class = centerbox><div class = fixation>+</div></div>,none,500,test,,,,,,,,,,,,299,32,850,0,stim,poldrack-single-stim,252,352887,0.0-6.1-47.1,go_nogo_deval,427,,<img class = center src='/static/experiments/go_nogo_deval/images/red_rhombus.png'></img>,32,850,test,red_rhombus,go2,32,15,1,,,,,,,-1,-1,1400,0,ITI,poldrack-single-stim,253,354288,0.0-6.1-48.1,go_nogo_deval,427,,<div></div>,32,1400,test,,,,,,,,,,,,-1,-1,500,0,fixation,poldrack-single-stim,254,354790,0.0-6.1-49.1,go_nogo_deval,427,,<div class = centerbox><div class = fixation>+</div></div>,none,500,test,,,,,,,,,,,,-1,-1,850,0,stim,poldrack-single-stim,255,355641,0.0-6.1-50.1,go_nogo_deval,427,,<img class = center src='/static/experiments/go_nogo_deval/images/blue_pentagon.png'></img>,32,850,test,blue_pentagon,nogo2,-1,16,1,,,,,,,-1,-1,1400,0,ITI,poldrack-single-stim,256,357042,0.0-6.1-51.1,go_nogo_deval,427,,<div></div>,32,1400,test,,,,,,,,,,,,-1,-1,500,0,fixation,poldrack-single-stim,257,357544,0.0-6.1-52.1,go_nogo_deval,427,,<div class = centerbox><div class = fixation>+</div></div>,none,500,test,,,,,,,,,,,,303,32,850,0,stim,poldrack-single-stim,258,358396,0.0-6.1-53.1,go_nogo_deval,427,,<img class = center src='/static/experiments/go_nogo_deval/images/red_rhombus.png'></img>,32,850,test,red_rhombus,go2,32,17,1,,,,,,,-1,-1,1400,0,ITI,poldrack-single-stim,259,359797,0.0-6.1-54.1,go_nogo_deval,427,,<div></div>,32,1400,test,,,,,,,,,,,,-1,-1,500,0,fixation,poldrack-single-stim,260,360298,0.0-6.1-55.1,go_nogo_deval,427,,<div class = centerbox><div class = fixation>+</div></div>,none,500,test,,,,,,,,,,,,293,32,850,0,stim,poldrack-single-stim,261,361150,0.0-6.1-56.1,go_nogo_deval,427,,<img class = center src='/static/experiments/go_nogo_deval/images/red_rhombus.png'></img>,32,850,test,red_rhombus,go2,32,18,1,,,,,,,-1,-1,1400,0,ITI,poldrack-single-stim,262,362553,0.0-6.1-57.1,go_nogo_deval,427,,<div></div>,32,1400,test,,,,,,,,,,,,-1,-1,500,0,fixation,poldrack-single-stim,263,363055,0.0-6.1-58.1,go_nogo_deval,427,,<div class = centerbox><div class = fixation>+</div></div>,none,500,test,,,,,,,,,,,,383,32,850,0,stim,poldrack-single-stim,264,363906,0.0-6.1-59.1,go_nogo_deval,427,,<img class = center src='/static/experiments/go_nogo_deval/images/red_rhombus.png'></img>,32,850,test,red_rhombus,go2,32,19,1,,,,,,,-1,-1,1400,0,ITI,poldrack-single-stim,265,365308,0.0-6.1-60.1,go_nogo_deval,427,,<div></div>,32,1400,test,,,,,,,,,,,,-1,-1,500,0,fixation,poldrack-single-stim,266,365809,0.0-6.1-61.1,go_nogo_deval,427,,<div class = centerbox><div class = fixation>+</div></div>,none,500,test,,,,,,,,,,,,329,32,850,0,stim,poldrack-single-stim,267,366660,0.0-6.1-62.1,go_nogo_deval,427,,<img class = center src='/static/experiments/go_nogo_deval/images/red_rhombus.png'></img>,32,850,test,red_rhombus,go2,32,20,1,,,,,,,-1,-1,1400,0,ITI,poldrack-single-stim,268,368062,0.0-6.1-63.1,go_nogo_deval,427,,<div></div>,32,1400,test,,,,,,,,,,,,-1,-1,500,0,fixation,poldrack-single-stim,269,368563,0.0-6.1-64.1,go_nogo_deval,427,,<div class = centerbox><div class = fixation>+</div></div>,none,500,test,,,,,,,,,,,,310,32,850,0,stim,poldrack-single-stim,270,369415,0.0-6.1-65.1,go_nogo_deval,427,,<img class = center src='/static/experiments/go_nogo_deval/images/red_rhombus.png'></img>,32,850,test,red_rhombus,go2,32,21,1,,,,,,,-1,-1,1400,0,ITI,poldrack-single-stim,271,370817,0.0-6.1-66.1,go_nogo_deval,427,,<div></div>,32,1400,test,,,,,,,,,,,,-1,-1,500,0,fixation,poldrack-single-stim,272,371319,0.0-6.1-67.1,go_nogo_deval,427,,<div class = centerbox><div class = fixation>+</div></div>,none,500,test,,,,,,,,,,,,411,32,850,0,stim,poldrack-single-stim,273,372170,0.0-6.1-68.1,go_nogo_deval,427,,<img class = center src='/static/experiments/go_nogo_deval/images/green_triangle.png'></img>,32,850,test,green_triangle,go1,32,22,1,,,,,,,-1,-1,1400,0,ITI,poldrack-single-stim,274,373571,0.0-6.1-69.1,go_nogo_deval,427,,<div></div>,32,1400,test,,,,,,,,,,,,-1,-1,500,0,fixation,poldrack-single-stim,275,374073,0.0-6.1-70.1,go_nogo_deval,427,,<div class = centerbox><div class = fixation>+</div></div>,none,500,test,,,,,,,,,,,,-1,-1,850,0,stim,poldrack-single-stim,276,374925,0.0-6.1-71.1,go_nogo_deval,427,,<img class = center src='/static/experiments/go_nogo_deval/images/purple_circle.png'></img>,32,850,test,purple_circle,nogo1,-1,23,1,,,,,,,-1,-1,1400,0,ITI,poldrack-single-stim,277,376327,0.0-6.1-72.1,go_nogo_deval,427,,<div></div>,32,1400,test,,,,,,,,,,,,-1,-1,500,0,fixation,poldrack-single-stim,278,376828,0.0-6.1-73.1,go_nogo_deval,427,,<div class = centerbox><div class = fixation>+</div></div>,none,500,test,,,,,,,,,,,,-1,-1,850,0,stim,poldrack-single-stim,279,377679,0.0-6.1-74.1,go_nogo_deval,427,,<img class = center src='/static/experiments/go_nogo_deval/images/blue_pentagon.png'></img>,32,850,test,blue_pentagon,nogo2,-1,24,1,,,,,,,-1,-1,1400,0,ITI,poldrack-single-stim,280,379081,0.0-6.1-75.1,go_nogo_deval,427,,<div></div>,32,1400,test,,,,,,,,,,,,-1,-1,500,0,fixation,poldrack-single-stim,281,379583,0.0-6.1-76.1,go_nogo_deval,427,,<div class = centerbox><div class = fixation>+</div></div>,none,500,test,,,,,,,,,,,,-1,-1,850,0,stim,poldrack-single-stim,282,380435,0.0-6.1-77.1,go_nogo_deval,427,,<img class = center src='/static/experiments/go_nogo_deval/images/purple_circle.png'></img>,32,850,test,purple_circle,nogo1,-1,25,1,,,,,,,-1,-1,1400,0,ITI,poldrack-single-stim,283,381837,0.0-6.1-78.1,go_nogo_deval,427,,<div></div>,32,1400,test,,,,,,,,,,,,-1,-1,500,0,fixation,poldrack-single-stim,284,382338,0.0-6.1-79.1,go_nogo_deval,427,,<div class = centerbox><div class = fixation>+</div></div>,none,500,test,,,,,,,,,,,,282,32,850,0,stim,poldrack-single-stim,285,383190,0.0-6.1-80.1,go_nogo_deval,427,,<img class = center src='/static/experiments/go_nogo_deval/images/red_rhombus.png'></img>,32,850,test,red_rhombus,go2,32,26,1,,,,,,,-1,-1,1400,0,ITI,poldrack-single-stim,286,384591,0.0-6.1-81.1,go_nogo_deval,427,,<div></div>,32,1400,test,,,,,,,,,,,,-1,-1,500,0,fixation,poldrack-single-stim,287,385092,0.0-6.1-82.1,go_nogo_deval,427,,<div class = centerbox><div class = fixation>+</div></div>,none,500,test,,,,,,,,,,,,307,32,850,0,stim,poldrack-single-stim,288,385944,0.0-6.1-83.1,go_nogo_deval,427,,<img class = center src='/static/experiments/go_nogo_deval/images/red_rhombus.png'></img>,32,850,test,red_rhombus,go2,32,27,1,,,,,,,-1,-1,1400,0,ITI,poldrack-single-stim,289,387345,0.0-6.1-84.1,go_nogo_deval,427,,<div></div>,32,1400,test,,,,,,,,,,,,-1,-1,500,0,fixation,poldrack-single-stim,290,387847,0.0-6.1-85.1,go_nogo_deval,427,,<div class = centerbox><div class = fixation>+</div></div>,none,500,test,,,,,,,,,,,,-1,-1,850,0,stim,poldrack-single-stim,291,388699,0.0-6.1-86.1,go_nogo_deval,427,,<img class = center src='/static/experiments/go_nogo_deval/images/purple_circle.png'></img>,32,850,test,purple_circle,nogo1,-1,28,1,,,,,,,-1,-1,1400,0,ITI,poldrack-single-stim,292,390100,0.0-6.1-87.1,go_nogo_deval,427,,<div></div>,32,1400,test,,,,,,,,,,,,-1,-1,500,0,fixation,poldrack-single-stim,293,390602,0.0-6.1-88.1,go_nogo_deval,427,,<div class = centerbox><div class = fixation>+</div></div>,none,500,test,,,,,,,,,,,,320,32,850,0,stim,poldrack-single-stim,294,391454,0.0-6.1-89.1,go_nogo_deval,427,,<img class = center src='/static/experiments/go_nogo_deval/images/red_rhombus.png'></img>,32,850,test,red_rhombus,go2,32,29,1,,,,,,,-1,-1,1400,0,ITI,poldrack-single-stim,295,392855,0.0-6.1-90.1,go_nogo_deval,427,,<div></div>,32,1400,test,,,,,,,,,,,,-1,-1,500,0,fixation,poldrack-single-stim,296,393357,0.0-6.1-91.1,go_nogo_deval,427,,<div class = centerbox><div class = fixation>+</div></div>,none,500,test,,,,,,,,,,,,-1,-1,850,0,stim,poldrack-single-stim,297,394209,0.0-6.1-92.1,go_nogo_deval,427,,<img class = center src='/static/experiments/go_nogo_deval/images/purple_circle.png'></img>,32,850,test,purple_circle,nogo1,-1,30,1,,,,,,,-1,-1,1400,0,ITI,poldrack-single-stim,298,395610,0.0-6.1-93.1,go_nogo_deval,427,,<div></div>,32,1400,test,,,,,,,,,,,,-1,-1,500,0,fixation,poldrack-single-stim,299,396111,0.0-6.1-94.1,go_nogo_deval,427,,<div class = centerbox><div class = fixation>+</div></div>,none,500,test,,,,,,,,,,,,-1,-1,850,0,stim,poldrack-single-stim,300,396963,0.0-6.1-95.1,go_nogo_deval,427,,<img class = center src='/static/experiments/go_nogo_deval/images/purple_circle.png'></img>,32,850,test,purple_circle,nogo1,-1,31,1,,,,,,,-1,-1,1400,0,ITI,poldrack-single-stim,301,398365,0.0-6.1-96.1,go_nogo_deval,427,,<div></div>,32,1400,test,,,,,,,,,,,,-1,-1,500,0,fixation,poldrack-single-stim,302,398866,0.0-6.1-97.1,go_nogo_deval,427,,<div class = centerbox><div class = fixation>+</div></div>,none,500,test,,,,,,,,,,,,370,32,850,0,stim,poldrack-single-stim,303,399718,0.0-6.1-98.1,go_nogo_deval,427,,<img class = center src='/static/experiments/go_nogo_deval/images/red_rhombus.png'></img>,32,850,test,red_rhombus,go2,32,32,1,,,,,,,-1,-1,1400,0,ITI,poldrack-single-stim,304,401120,0.0-6.1-99.1,go_nogo_deval,427,,<div></div>,32,1400,test,,,,,,,,,,,,-1,-1,500,0,fixation,poldrack-single-stim,305,401622,0.0-6.1-100.1,go_nogo_deval,427,,<div class = centerbox><div class = fixation>+</div></div>,none,500,test,,,,,,,,,,,,449,32,850,0,stim,poldrack-single-stim,306,402473,0.0-6.1-101.1,go_nogo_deval,427,,<img class = center src='/static/experiments/go_nogo_deval/images/green_triangle.png'></img>,32,850,test,green_triangle,go1,32,33,1,,,,,,,-1,-1,1400,0,ITI,poldrack-single-stim,307,403875,0.0-6.1-102.1,go_nogo_deval,427,,<div></div>,32,1400,test,,,,,,,,,,,,-1,-1,500,0,fixation,poldrack-single-stim,308,404377,0.0-6.1-103.1,go_nogo_deval,427,,<div class = centerbox><div class = fixation>+</div></div>,none,500,test,,,,,,,,,,,,451,32,850,0,stim,poldrack-single-stim,309,405228,0.0-6.1-104.1,go_nogo_deval,427,,<img class = center src='/static/experiments/go_nogo_deval/images/red_rhombus.png'></img>,32,850,test,red_rhombus,go2,32,34,1,,,,,,,-1,-1,1400,0,ITI,poldrack-single-stim,310,406629,0.0-6.1-105.1,go_nogo_deval,427,,<div></div>,32,1400,test,,,,,,,,,,,,-1,-1,500,0,fixation,poldrack-single-stim,311,407130,0.0-6.1-106.1,go_nogo_deval,427,,<div class = centerbox><div class = fixation>+</div></div>,none,500,test,,,,,,,,,,,,-1,-1,850,0,stim,poldrack-single-stim,312,407981,0.0-6.1-107.1,go_nogo_deval,427,,<img class = center src='/static/experiments/go_nogo_deval/images/blue_pentagon.png'></img>,32,850,test,blue_pentagon,nogo2,-1,35,1,,,,,,,-1,-1,1400,0,ITI,poldrack-single-stim,313,409383,0.0-6.1-108.1,go_nogo_deval,427,,<div></div>,32,1400,test,,,,,,,,,,,,-1,-1,500,0,fixation,poldrack-single-stim,314,409885,0.0-6.1-109.1,go_nogo_deval,427,,<div class = centerbox><div class = fixation>+</div></div>,none,500,test,,,,,,,,,,,,422,32,850,0,stim,poldrack-single-stim,315,410737,0.0-6.1-110.1,go_nogo_deval,427,,<img class = center src='/static/experiments/go_nogo_deval/images/green_triangle.png'></img>,32,850,test,green_triangle,go1,32,36,1,,,,,,,-1,-1,1400,0,ITI,poldrack-single-stim,316,412138,0.0-6.1-111.1,go_nogo_deval,427,,<div></div>,32,1400,test,,,,,,,,,,,,-1,-1,500,0,fixation,poldrack-single-stim,317,412640,0.0-6.1-112.1,go_nogo_deval,427,,<div class = centerbox><div class = fixation>+</div></div>,none,500,test,,,,,,,,,,,,468,32,850,0,stim,poldrack-single-stim,318,413491,0.0-6.1-113.1,go_nogo_deval,427,,<img class = center src='/static/experiments/go_nogo_deval/images/green_triangle.png'></img>,32,850,test,green_triangle,go1,32,37,1,,,,,,,-1,-1,1400,0,ITI,poldrack-single-stim,319,414893,0.0-6.1-114.1,go_nogo_deval,427,,<div></div>,32,1400,test,,,,,,,,,,,,-1,-1,500,0,fixation,poldrack-single-stim,320,415394,0.0-6.1-115.1,go_nogo_deval,427,,<div class = centerbox><div class = fixation>+</div></div>,none,500,test,,,,,,,,,,,,369,32,850,0,stim,poldrack-single-stim,321,416246,0.0-6.1-116.1,go_nogo_deval,427,,<img class = center src='/static/experiments/go_nogo_deval/images/green_triangle.png'></img>,32,850,test,green_triangle,go1,32,38,1,,,,,,,-1,-1,1400,0,ITI,poldrack-single-stim,322,417647,0.0-6.1-117.1,go_nogo_deval,427,,<div></div>,32,1400,test,,,,,,,,,,,,-1,-1,500,0,fixation,poldrack-single-stim,323,418148,0.0-6.1-118.1,go_nogo_deval,427,,<div class = centerbox><div class = fixation>+</div></div>,none,500,test,,,,,,,,,,,,461,32,850,0,stim,poldrack-single-stim,324,418999,0.0-6.1-119.1,go_nogo_deval,427,,<img class = center src='/static/experiments/go_nogo_deval/images/red_rhombus.png'></img>,32,850,test,red_rhombus,go2,32,39,1,,,,,,,-1,-1,1400,0,ITI,poldrack-single-stim,325,420401,0.0-6.1-120.1,go_nogo_deval,427,,<div></div>,32,1400,test,,,,,,,,,,,,-1,-1,500,0,fixation,poldrack-single-stim,326,420903,0.0-6.1-121.1,go_nogo_deval,427,,<div class = centerbox><div class = fixation>+</div></div>,none,500,test,,,,,,,,,,,,496,32,850,0,stim,poldrack-single-stim,327,421755,0.0-6.1-122.1,go_nogo_deval,427,,<img class = center src='/static/experiments/go_nogo_deval/images/green_triangle.png'></img>,32,850,test,green_triangle,go1,32,40,1,,,,,,,-1,-1,1400,0,ITI,poldrack-single-stim,328,423155,0.0-6.1-123.1,go_nogo_deval,427,,<div></div>,32,1400,test,,,,,,,,,,,,-1,-1,500,0,fixation,poldrack-single-stim,329,423657,0.0-6.1-124.1,go_nogo_deval,427,,<div class = centerbox><div class = fixation>+</div></div>,none,500,test,,,,,,,,,,,,351,32,850,0,stim,poldrack-single-stim,330,424509,0.0-6.1-125.1,go_nogo_deval,427,,<img class = center src='/static/experiments/go_nogo_deval/images/green_triangle.png'></img>,32,850,test,green_triangle,go1,32,41,1,,,,,,,-1,-1,1400,0,ITI,poldrack-single-stim,331,425911,0.0-6.1-126.1,go_nogo_deval,427,,<div></div>,32,1400,test,,,,,,,,,,,,-1,-1,500,0,fixation,poldrack-single-stim,332,426412,0.0-6.1-127.1,go_nogo_deval,427,,<div class = centerbox><div class = fixation>+</div></div>,none,500,test,,,,,,,,,,,,398,32,850,0,stim,poldrack-single-stim,333,427264,0.0-6.1-128.1,go_nogo_deval,427,,<img class = center src='/static/experiments/go_nogo_deval/images/red_rhombus.png'></img>,32,850,test,red_rhombus,go2,32,42,1,,,,,,,-1,-1,1400,0,ITI,poldrack-single-stim,334,428666,0.0-6.1-129.1,go_nogo_deval,427,,<div></div>,32,1400,test,,,,,,,,,,,,-1,-1,500,0,fixation,poldrack-single-stim,335,429168,0.0-6.1-130.1,go_nogo_deval,427,,<div class = centerbox><div class = fixation>+</div></div>,none,500,test,,,,,,,,,,,,-1,-1,850,0,stim,poldrack-single-stim,336,430020,0.0-6.1-131.1,go_nogo_deval,427,,<img class = center src='/static/experiments/go_nogo_deval/images/blue_pentagon.png'></img>,32,850,test,blue_pentagon,nogo2,-1,43,1,,,,,,,-1,-1,1400,0,ITI,poldrack-single-stim,337,431421,0.0-6.1-132.1,go_nogo_deval,427,,<div></div>,32,1400,test,,,,,,,,,,,,-1,-1,500,0,fixation,poldrack-single-stim,338,431922,0.0-6.1-133.1,go_nogo_deval,427,,<div class = centerbox><div class = fixation>+</div></div>,none,500,test,,,,,,,,,,,,-1,-1,850,0,stim,poldrack-single-stim,339,432774,0.0-6.1-134.1,go_nogo_deval,427,,<img class = center src='/static/experiments/go_nogo_deval/images/purple_circle.png'></img>,32,850,test,purple_circle,nogo1,-1,44,1,,,,,,,-1,-1,1400,0,ITI,poldrack-single-stim,340,434176,0.0-6.1-135.1,go_nogo_deval,427,,<div></div>,32,1400,test,,,,,,,,,,,,-1,-1,500,0,fixation,poldrack-single-stim,341,434677,0.0-6.1-136.1,go_nogo_deval,427,,<div class = centerbox><div class = fixation>+</div></div>,none,500,test,,,,,,,,,,,,324,32,850,0,stim,poldrack-single-stim,342,435529,0.0-6.1-137.1,go_nogo_deval,427,,<img class = center src='/static/experiments/go_nogo_deval/images/red_rhombus.png'></img>,32,850,test,red_rhombus,go2,32,45,1,,,,,,,-1,-1,1400,0,ITI,poldrack-single-stim,343,436930,0.0-6.1-138.1,go_nogo_deval,427,,<div></div>,32,1400,test,,,,,,,,,,,,-1,-1,500,0,fixation,poldrack-single-stim,344,437431,0.0-6.1-139.1,go_nogo_deval,427,,<div class = centerbox><div class = fixation>+</div></div>,none,500,test,,,,,,,,,,,,371,32,850,0,stim,poldrack-single-stim,345,438282,0.0-6.1-140.1,go_nogo_deval,427,,<img class = center src='/static/experiments/go_nogo_deval/images/green_triangle.png'></img>,32,850,test,green_triangle,go1,32,46,1,,,,,,,-1,-1,1400,0,ITI,poldrack-single-stim,346,439684,0.0-6.1-141.1,go_nogo_deval,427,,<div></div>,32,1400,test,,,,,,,,,,,,-1,-1,500,0,fixation,poldrack-single-stim,347,440186,0.0-6.1-142.1,go_nogo_deval,427,,<div class = centerbox><div class = fixation>+</div></div>,none,500,test,,,,,,,,,,,,-1,-1,850,0,stim,poldrack-single-stim,348,441038,0.0-6.1-143.1,go_nogo_deval,427,,<img class = center src='/static/experiments/go_nogo_deval/images/blue_pentagon.png'></img>,32,850,test,blue_pentagon,nogo2,-1,47,1,,,,,,,-1,-1,1400,0,ITI,poldrack-single-stim,349,442438,0.0-6.1-144.1,go_nogo_deval,427,,<div></div>,32,1400,test,,,,,,,,,,,,7803,13,7803,0,practice-no-stop-feedback,poldrack-single-stim,350,450245,0.0-6.2-0.2,go_nogo_deval,427,,<div class = centerbox><p class = block-text><br>Please take this time to read your feedback and to take a short break! Press enter to continue</p><p class = block-text><strong>Average reaction time:  379 ms. Accuracy: 100%</strong></p></div>,13,7803,,,,,,,,,,,,,-1,-1,500,0,fixation,poldrack-single-stim,351,450747,0.0-6.2-1.2,go_nogo_deval,427,,<div class = centerbox><div class = fixation>+</div></div>,none,500,test,,,,,,,,,,,,577,32,850,0,stim,poldrack-single-stim,352,451598,0.0-6.2-2.2,go_nogo_deval,427,,<img class = center src='/static/experiments/go_nogo_deval/images/red_rhombus.png'></img>,32,850,test,red_rhombus,go2,32,0,2,,,,,,,-1,-1,1400,0,ITI,poldrack-single-stim,353,453000,0.0-6.2-3.2,go_nogo_deval,427,,<div></div>,32,1400,test,,,,,,,,,,,,-1,-1,500,0,fixation,poldrack-single-stim,354,453502,0.0-6.2-4.2,go_nogo_deval,427,,<div class = centerbox><div class = fixation>+</div></div>,none,500,test,,,,,,,,,,,,-1,-1,850,0,stim,poldrack-single-stim,355,454354,0.0-6.2-5.2,go_nogo_deval,427,,<img class = center src='/static/experiments/go_nogo_deval/images/purple_circle.png'></img>,32,850,test,purple_circle,nogo1,-1,1,2,,,,,,,-1,-1,1400,0,ITI,poldrack-single-stim,356,455756,0.0-6.2-6.2,go_nogo_deval,427,,<div></div>,32,1400,test,,,,,,,,,,,,-1,-1,500,0,fixation,poldrack-single-stim,357,456257,0.0-6.2-7.2,go_nogo_deval,427,,<div class = centerbox><div class = fixation>+</div></div>,none,500,test,,,,,,,,,,,,355,32,850,0,stim,poldrack-single-stim,358,457109,0.0-6.2-8.2,go_nogo_deval,427,,<img class = center src='/static/experiments/go_nogo_deval/images/red_rhombus.png'></img>,32,850,test,red_rhombus,go2,32,2,2,,,,,,,-1,-1,1400,0,ITI,poldrack-single-stim,359,458510,0.0-6.2-9.2,go_nogo_deval,427,,<div></div>,32,1400,test,,,,,,,,,,,,-1,-1,500,0,fixation,poldrack-single-stim,360,459011,0.0-6.2-10.2,go_nogo_deval,427,,<div class = centerbox><div class = fixation>+</div></div>,none,500,test,,,,,,,,,,,,436,32,850,0,stim,poldrack-single-stim,361,459863,0.0-6.2-11.2,go_nogo_deval,427,,<img class = center src='/static/experiments/go_nogo_deval/images/green_triangle.png'></img>,32,850,test,green_triangle,go1,32,3,2,,,,,,,-1,-1,1400,0,ITI,poldrack-single-stim,362,461264,0.0-6.2-12.2,go_nogo_deval,427,,<div></div>,32,1400,test,,,,,,,,,,,,-1,-1,500,0,fixation,poldrack-single-stim,363,461765,0.0-6.2-13.2,go_nogo_deval,427,,<div class = centerbox><div class = fixation>+</div></div>,none,500,test,,,,,,,,,,,,-1,-1,850,0,stim,poldrack-single-stim,364,462617,0.0-6.2-14.2,go_nogo_deval,427,,<img class = center src='/static/experiments/go_nogo_deval/images/blue_pentagon.png'></img>,32,850,test,blue_pentagon,nogo2,-1,4,2,,,,,,,-1,-1,1400,0,ITI,poldrack-single-stim,365,464019,0.0-6.2-15.2,go_nogo_deval,427,,<div></div>,32,1400,test,,,,,,,,,,,,-1,-1,500,0,fixation,poldrack-single-stim,366,464520,0.0-6.2-16.2,go_nogo_deval,427,,<div class = centerbox><div class = fixation>+</div></div>,none,500,test,,,,,,,,,,,,462,32,850,0,stim,poldrack-single-stim,367,465372,0.0-6.2-17.2,go_nogo_deval,427,,<img class = center src='/static/experiments/go_nogo_deval/images/green_triangle.png'></img>,32,850,test,green_triangle,go1,32,5,2,,,,,,,-1,-1,1400,0,ITI,poldrack-single-stim,368,466773,0.0-6.2-18.2,go_nogo_deval,427,,<div></div>,32,1400,test,,,,,,,,,,,,-1,-1,500,0,fixation,poldrack-single-stim,369,467275,0.0-6.2-19.2,go_nogo_deval,427,,<div class = centerbox><div class = fixation>+</div></div>,none,500,test,,,,,,,,,,,,272,32,850,0,stim,poldrack-single-stim,370,468127,0.0-6.2-20.2,go_nogo_deval,427,,<img class = center src='/static/experiments/go_nogo_deval/images/blue_pentagon.png'></img>,32,850,test,blue_pentagon,nogo2,-1,6,2,,,,,,,-1,-1,1400,0,ITI,poldrack-single-stim,371,469529,0.0-6.2-21.2,go_nogo_deval,427,,<div></div>,32,1400,test,,,,,,,,,,,,-1,-1,500,0,fixation,poldrack-single-stim,372,470031,0.0-6.2-22.2,go_nogo_deval,427,,<div class = centerbox><div class = fixation>+</div></div>,none,500,test,,,,,,,,,,,,475,32,850,0,stim,poldrack-single-stim,373,470882,0.0-6.2-23.2,go_nogo_deval,427,,<img class = center src='/static/experiments/go_nogo_deval/images/red_rhombus.png'></img>,32,850,test,red_rhombus,go2,32,7,2,,,,,,,-1,-1,1400,0,ITI,poldrack-single-stim,374,472283,0.0-6.2-24.2,go_nogo_deval,427,,<div></div>,32,1400,test,,,,,,,,,,,,-1,-1,500,0,fixation,poldrack-single-stim,375,472785,0.0-6.2-25.2,go_nogo_deval,427,,<div class = centerbox><div class = fixation>+</div></div>,none,500,test,,,,,,,,,,,,342,32,850,0,stim,poldrack-single-stim,376,473637,0.0-6.2-26.2,go_nogo_deval,427,,<img class = center src='/static/experiments/go_nogo_deval/images/green_triangle.png'></img>,32,850,test,green_triangle,go1,32,8,2,,,,,,,-1,-1,1400,0,ITI,poldrack-single-stim,377,475038,0.0-6.2-27.2,go_nogo_deval,427,,<div></div>,32,1400,test,,,,,,,,,,,,-1,-1,500,0,fixation,poldrack-single-stim,378,475540,0.0-6.2-28.2,go_nogo_deval,427,,<div class = centerbox><div class = fixation>+</div></div>,none,500,test,,,,,,,,,,,,-1,-1,850,0,stim,poldrack-single-stim,379,476391,0.0-6.2-29.2,go_nogo_deval,427,,<img class = center src='/static/experiments/go_nogo_deval/images/purple_circle.png'></img>,32,850,test,purple_circle,nogo1,-1,9,2,,,,,,,-1,-1,1400,0,ITI,poldrack-single-stim,380,477792,0.0-6.2-30.2,go_nogo_deval,427,,<div></div>,32,1400,test,,,,,,,,,,,,-1,-1,500,0,fixation,poldrack-single-stim,381,478294,0.0-6.2-31.2,go_nogo_deval,427,,<div class = centerbox><div class = fixation>+</div></div>,none,500,test,,,,,,,,,,,,402,32,850,0,stim,poldrack-single-stim,382,479146,0.0-6.2-32.2,go_nogo_deval,427,,<img class = center src='/static/experiments/go_nogo_deval/images/red_rhombus.png'></img>,32,850,test,red_rhombus,go2,32,10,2,,,,,,,-1,-1,1400,0,ITI,poldrack-single-stim,383,480547,0.0-6.2-33.2,go_nogo_deval,427,,<div></div>,32,1400,test,,,,,,,,,,,,-1,-1,500,0,fixation,poldrack-single-stim,384,481048,0.0-6.2-34.2,go_nogo_deval,427,,<div class = centerbox><div class = fixation>+</div></div>,none,500,test,,,,,,,,,,,,-1,-1,850,0,stim,poldrack-single-stim,385,481899,0.0-6.2-35.2,go_nogo_deval,427,,<img class = center src='/static/experiments/go_nogo_deval/images/blue_pentagon.png'></img>,32,850,test,blue_pentagon,nogo2,-1,11,2,,,,,,,-1,-1,1400,0,ITI,poldrack-single-stim,386,483301,0.0-6.2-36.2,go_nogo_deval,427,,<div></div>,32,1400,test,,,,,,,,,,,,-1,-1,500,0,fixation,poldrack-single-stim,387,483803,0.0-6.2-37.2,go_nogo_deval,427,,<div class = centerbox><div class = fixation>+</div></div>,none,500,test,,,,,,,,,,,,417,32,850,0,stim,poldrack-single-stim,388,484654,0.0-6.2-38.2,go_nogo_deval,427,,<img class = center src='/static/experiments/go_nogo_deval/images/red_rhombus.png'></img>,32,850,test,red_rhombus,go2,32,12,2,,,,,,,-1,-1,1400,0,ITI,poldrack-single-stim,389,486055,0.0-6.2-39.2,go_nogo_deval,427,,<div></div>,32,1400,test,,,,,,,,,,,,-1,-1,500,0,fixation,poldrack-single-stim,390,486557,0.0-6.2-40.2,go_nogo_deval,427,,<div class = centerbox><div class = fixation>+</div></div>,none,500,test,,,,,,,,,,,,-1,-1,850,0,stim,poldrack-single-stim,391,487409,0.0-6.2-41.2,go_nogo_deval,427,,<img class = center src='/static/experiments/go_nogo_deval/images/purple_circle.png'></img>,32,850,test,purple_circle,nogo1,-1,13,2,,,,,,,-1,-1,1400,0,ITI,poldrack-single-stim,392,488811,0.0-6.2-42.2,go_nogo_deval,427,,<div></div>,32,1400,test,,,,,,,,,,,,-1,-1,500,0,fixation,poldrack-single-stim,393,489312,0.0-6.2-43.2,go_nogo_deval,427,,<div class = centerbox><div class = fixation>+</div></div>,none,500,test,,,,,,,,,,,,-1,-1,850,0,stim,poldrack-single-stim,394,490165,0.0-6.2-44.2,go_nogo_deval,427,,<img class = center src='/static/experiments/go_nogo_deval/images/purple_circle.png'></img>,32,850,test,purple_circle,nogo1,-1,14,2,,,,,,,-1,-1,1400,0,ITI,poldrack-single-stim,395,491567,0.0-6.2-45.2,go_nogo_deval,427,,<div></div>,32,1400,test,,,,,,,,,,,,-1,-1,500,0,fixation,poldrack-single-stim,396,492069,0.0-6.2-46.2,go_nogo_deval,427,,<div class = centerbox><div class = fixation>+</div></div>,none,500,test,,,,,,,,,,,,-1,-1,850,0,stim,poldrack-single-stim,397,492921,0.0-6.2-47.2,go_nogo_deval,427,,<img class = center src='/static/experiments/go_nogo_deval/images/purple_circle.png'></img>,32,850,test,purple_circle,nogo1,-1,15,2,,,,,,,-1,-1,1400,0,ITI,poldrack-single-stim,398,494323,0.0-6.2-48.2,go_nogo_deval,427,,<div></div>,32,1400,test,,,,,,,,,,,,-1,-1,500,0,fixation,poldrack-single-stim,399,494824,0.0-6.2-49.2,go_nogo_deval,427,,<div class = centerbox><div class = fixation>+</div></div>,none,500,test,,,,,,,,,,,,386,32,850,0,stim,poldrack-single-stim,400,495676,0.0-6.2-50.2,go_nogo_deval,427,,<img class = center src='/static/experiments/go_nogo_deval/images/red_rhombus.png'></img>,32,850,test,red_rhombus,go2,32,16,2,,,,,,,-1,-1,1400,0,ITI,poldrack-single-stim,401,497077,0.0-6.2-51.2,go_nogo_deval,427,,<div></div>,32,1400,test,,,,,,,,,,,,-1,-1,500,0,fixation,poldrack-single-stim,402,497578,0.0-6.2-52.2,go_nogo_deval,427,,<div class = centerbox><div class = fixation>+</div></div>,none,500,test,,,,,,,,,,,,-1,-1,850,0,stim,poldrack-single-stim,403,498429,0.0-6.2-53.2,go_nogo_deval,427,,<img class = center src='/static/experiments/go_nogo_deval/images/blue_pentagon.png'></img>,32,850,test,blue_pentagon,nogo2,-1,17,2,,,,,,,-1,-1,1400,0,ITI,poldrack-single-stim,404,499830,0.0-6.2-54.2,go_nogo_deval,427,,<div></div>,32,1400,test,,,,,,,,,,,,-1,-1,500,0,fixation,poldrack-single-stim,405,500332,0.0-6.2-55.2,go_nogo_deval,427,,<div class = centerbox><div class = fixation>+</div></div>,none,500,test,,,,,,,,,,,,493,32,850,0,stim,poldrack-single-stim,406,501182,0.0-6.2-56.2,go_nogo_deval,427,,<img class = center src='/static/experiments/go_nogo_deval/images/green_triangle.png'></img>,32,850,test,green_triangle,go1,32,18,2,,,,,,,-1,-1,1400,0,ITI,poldrack-single-stim,407,502584,0.0-6.2-57.2,go_nogo_deval,427,,<div></div>,32,1400,test,,,,,,,,,,,,-1,-1,500,0,fixation,poldrack-single-stim,408,503086,0.0-6.2-58.2,go_nogo_deval,427,,<div class = centerbox><div class = fixation>+</div></div>,none,500,test,,,,,,,,,,,,428,32,850,0,stim,poldrack-single-stim,409,503938,0.0-6.2-59.2,go_nogo_deval,427,,<img class = center src='/static/experiments/go_nogo_deval/images/red_rhombus.png'></img>,32,850,test,red_rhombus,go2,32,19,2,,,,,,,-1,-1,1400,0,ITI,poldrack-single-stim,410,505339,0.0-6.2-60.2,go_nogo_deval,427,,<div></div>,32,1400,test,,,,,,,,,,,,-1,-1,500,0,fixation,poldrack-single-stim,411,505840,0.0-6.2-61.2,go_nogo_deval,427,,<div class = centerbox><div class = fixation>+</div></div>,none,500,test,,,,,,,,,,,,-1,-1,850,0,stim,poldrack-single-stim,412,506691,0.0-6.2-62.2,go_nogo_deval,427,,<img class = center src='/static/experiments/go_nogo_deval/images/purple_circle.png'></img>,32,850,test,purple_circle,nogo1,-1,20,2,,,,,,,-1,-1,1400,0,ITI,poldrack-single-stim,413,508093,0.0-6.2-63.2,go_nogo_deval,427,,<div></div>,32,1400,test,,,,,,,,,,,,-1,-1,500,0,fixation,poldrack-single-stim,414,508595,0.0-6.2-64.2,go_nogo_deval,427,,<div class = centerbox><div class = fixation>+</div></div>,none,500,test,,,,,,,,,,,,-1,-1,850,0,stim,poldrack-single-stim,415,509446,0.0-6.2-65.2,go_nogo_deval,427,,<img class = center src='/static/experiments/go_nogo_deval/images/blue_pentagon.png'></img>,32,850,test,blue_pentagon,nogo2,-1,21,2,,,,,,,-1,-1,1400,0,ITI,poldrack-single-stim,416,510847,0.0-6.2-66.2,go_nogo_deval,427,,<div></div>,32,1400,test,,,,,,,,,,,,-1,-1,500,0,fixation,poldrack-single-stim,417,511349,0.0-6.2-67.2,go_nogo_deval,427,,<div class = centerbox><div class = fixation>+</div></div>,none,500,test,,,,,,,,,,,,-1,-1,850,0,stim,poldrack-single-stim,418,512200,0.0-6.2-68.2,go_nogo_deval,427,,<img class = center src='/static/experiments/go_nogo_deval/images/purple_circle.png'></img>,32,850,test,purple_circle,nogo1,-1,22,2,,,,,,,-1,-1,1400,0,ITI,poldrack-single-stim,419,513601,0.0-6.2-69.2,go_nogo_deval,427,,<div></div>,32,1400,test,,,,,,,,,,,,-1,-1,500,0,fixation,poldrack-single-stim,420,514103,0.0-6.2-70.2,go_nogo_deval,427,,<div class = centerbox><div class = fixation>+</div></div>,none,500,test,,,,,,,,,,,,-1,-1,850,0,stim,poldrack-single-stim,421,514954,0.0-6.2-71.2,go_nogo_deval,427,,<img class = center src='/static/experiments/go_nogo_deval/images/blue_pentagon.png'></img>,32,850,test,blue_pentagon,nogo2,-1,23,2,,,,,,,-1,-1,1400,0,ITI,poldrack-single-stim,422,516356,0.0-6.2-72.2,go_nogo_deval,427,,<div></div>,32,1400,test,,,,,,,,,,,,-1,-1,500,0,fixation,poldrack-single-stim,423,516858,0.0-6.2-73.2,go_nogo_deval,427,,<div class = centerbox><div class = fixation>+</div></div>,none,500,test,,,,,,,,,,,,-1,-1,850,0,stim,poldrack-single-stim,424,517708,0.0-6.2-74.2,go_nogo_deval,427,,<img class = center src='/static/experiments/go_nogo_deval/images/blue_pentagon.png'></img>,32,850,test,blue_pentagon,nogo2,-1,24,2,,,,,,,-1,-1,1400,0,ITI,poldrack-single-stim,425,519110,0.0-6.2-75.2,go_nogo_deval,427,,<div></div>,32,1400,test,,,,,,,,,,,,-1,-1,500,0,fixation,poldrack-single-stim,426,519612,0.0-6.2-76.2,go_nogo_deval,427,,<div class = centerbox><div class = fixation>+</div></div>,none,500,test,,,,,,,,,,,,473,32,850,0,stim,poldrack-single-stim,427,520464,0.0-6.2-77.2,go_nogo_deval,427,,<img class = center src='/static/experiments/go_nogo_deval/images/red_rhombus.png'></img>,32,850,test,red_rhombus,go2,32,25,2,,,,,,,-1,-1,1400,0,ITI,poldrack-single-stim,428,521865,0.0-6.2-78.2,go_nogo_deval,427,,<div></div>,32,1400,test,,,,,,,,,,,,-1,-1,500,0,fixation,poldrack-single-stim,429,522366,0.0-6.2-79.2,go_nogo_deval,427,,<div class = centerbox><div class = fixation>+</div></div>,none,500,test,,,,,,,,,,,,339,32,850,0,stim,poldrack-single-stim,430,523219,0.0-6.2-80.2,go_nogo_deval,427,,<img class = center src='/static/experiments/go_nogo_deval/images/red_rhombus.png'></img>,32,850,test,red_rhombus,go2,32,26,2,,,,,,,-1,-1,1400,0,ITI,poldrack-single-stim,431,524620,0.0-6.2-81.2,go_nogo_deval,427,,<div></div>,32,1400,test,,,,,,,,,,,,-1,-1,500,0,fixation,poldrack-single-stim,432,525121,0.0-6.2-82.2,go_nogo_deval,427,,<div class = centerbox><div class = fixation>+</div></div>,none,500,test,,,,,,,,,,,,341,32,850,0,stim,poldrack-single-stim,433,525973,0.0-6.2-83.2,go_nogo_deval,427,,<img class = center src='/static/experiments/go_nogo_deval/images/red_rhombus.png'></img>,32,850,test,red_rhombus,go2,32,27,2,,,,,,,-1,-1,1400,0,ITI,poldrack-single-stim,434,527375,0.0-6.2-84.2,go_nogo_deval,427,,<div></div>,32,1400,test,,,,,,,,,,,,-1,-1,500,0,fixation,poldrack-single-stim,435,527876,0.0-6.2-85.2,go_nogo_deval,427,,<div class = centerbox><div class = fixation>+</div></div>,none,500,test,,,,,,,,,,,,443,32,850,0,stim,poldrack-single-stim,436,528728,0.0-6.2-86.2,go_nogo_deval,427,,<img class = center src='/static/experiments/go_nogo_deval/images/green_triangle.png'></img>,32,850,test,green_triangle,go1,32,28,2,,,,,,,-1,-1,1400,0,ITI,poldrack-single-stim,437,530129,0.0-6.2-87.2,go_nogo_deval,427,,<div></div>,32,1400,test,,,,,,,,,,,,-1,-1,500,0,fixation,poldrack-single-stim,438,530630,0.0-6.2-88.2,go_nogo_deval,427,,<div class = centerbox><div class = fixation>+</div></div>,none,500,test,,,,,,,,,,,,390,32,850,0,stim,poldrack-single-stim,439,531482,0.0-6.2-89.2,go_nogo_deval,427,,<img class = center src='/static/experiments/go_nogo_deval/images/green_triangle.png'></img>,32,850,test,green_triangle,go1,32,29,2,,,,,,,-1,-1,1400,0,ITI,poldrack-single-stim,440,532884,0.0-6.2-90.2,go_nogo_deval,427,,<div></div>,32,1400,test,,,,,,,,,,,,-1,-1,500,0,fixation,poldrack-single-stim,441,533385,0.0-6.2-91.2,go_nogo_deval,427,,<div class = centerbox><div class = fixation>+</div></div>,none,500,test,,,,,,,,,,,,413,32,850,0,stim,poldrack-single-stim,442,534238,0.0-6.2-92.2,go_nogo_deval,427,,<img class = center src='/static/experiments/go_nogo_deval/images/red_rhombus.png'></img>,32,850,test,red_rhombus,go2,32,30,2,,,,,,,-1,-1,1400,0,ITI,poldrack-single-stim,443,535639,0.0-6.2-93.2,go_nogo_deval,427,,<div></div>,32,1400,test,,,,,,,,,,,,-1,-1,500,0,fixation,poldrack-single-stim,444,536141,0.0-6.2-94.2,go_nogo_deval,427,,<div class = centerbox><div class = fixation>+</div></div>,none,500,test,,,,,,,,,,,,504,32,850,0,stim,poldrack-single-stim,445,536992,0.0-6.2-95.2,go_nogo_deval,427,,<img class = center src='/static/experiments/go_nogo_deval/images/green_triangle.png'></img>,32,850,test,green_triangle,go1,32,31,2,,,,,,,-1,-1,1400,0,ITI,poldrack-single-stim,446,538394,0.0-6.2-96.2,go_nogo_deval,427,,<div></div>,32,1400,test,,,,,,,,,,,,-1,-1,500,0,fixation,poldrack-single-stim,447,538895,0.0-6.2-97.2,go_nogo_deval,427,,<div class = centerbox><div class = fixation>+</div></div>,none,500,test,,,,,,,,,,,,338,32,850,0,stim,poldrack-single-stim,448,539747,0.0-6.2-98.2,go_nogo_deval,427,,<img class = center src='/static/experiments/go_nogo_deval/images/green_triangle.png'></img>,32,850,test,green_triangle,go1,32,32,2,,,,,,,-1,-1,1400,0,ITI,poldrack-single-stim,449,541148,0.0-6.2-99.2,go_nogo_deval,427,,<div></div>,32,1400,test,,,,,,,,,,,,-1,-1,500,0,fixation,poldrack-single-stim,450,541650,0.0-6.2-100.2,go_nogo_deval,427,,<div class = centerbox><div class = fixation>+</div></div>,none,500,test,,,,,,,,,,,,418,32,850,0,stim,poldrack-single-stim,451,542501,0.0-6.2-101.2,go_nogo_deval,427,,<img class = center src='/static/experiments/go_nogo_deval/images/red_rhombus.png'></img>,32,850,test,red_rhombus,go2,32,33,2,,,,,,,-1,-1,1400,0,ITI,poldrack-single-stim,452,543902,0.0-6.2-102.2,go_nogo_deval,427,,<div></div>,32,1400,test,,,,,,,,,,,,-1,-1,500,0,fixation,poldrack-single-stim,453,544404,0.0-6.2-103.2,go_nogo_deval,427,,<div class = centerbox><div class = fixation>+</div></div>,none,500,test,,,,,,,,,,,,385,32,850,0,stim,poldrack-single-stim,454,545256,0.0-6.2-104.2,go_nogo_deval,427,,<img class = center src='/static/experiments/go_nogo_deval/images/green_triangle.png'></img>,32,850,test,green_triangle,go1,32,34,2,,,,,,,-1,-1,1400,0,ITI,poldrack-single-stim,455,546657,0.0-6.2-105.2,go_nogo_deval,427,,<div></div>,32,1400,test,,,,,,,,,,,,-1,-1,500,0,fixation,poldrack-single-stim,456,547158,0.0-6.2-106.2,go_nogo_deval,427,,<div class = centerbox><div class = fixation>+</div></div>,none,500,test,,,,,,,,,,,,-1,-1,850,0,stim,poldrack-single-stim,457,548009,0.0-6.2-107.2,go_nogo_deval,427,,<img class = center src='/static/experiments/go_nogo_deval/images/blue_pentagon.png'></img>,32,850,test,blue_pentagon,nogo2,-1,35,2,,,,,,,-1,-1,1400,0,ITI,poldrack-single-stim,458,549411,0.0-6.2-108.2,go_nogo_deval,427,,<div></div>,32,1400,test,,,,,,,,,,,,-1,-1,500,0,fixation,poldrack-single-stim,459,549913,0.0-6.2-109.2,go_nogo_deval,427,,<div class = centerbox><div class = fixation>+</div></div>,none,500,test,,,,,,,,,,,,435,32,850,0,stim,poldrack-single-stim,460,550764,0.0-6.2-110.2,go_nogo_deval,427,,<img class = center src='/static/experiments/go_nogo_deval/images/green_triangle.png'></img>,32,850,test,green_triangle,go1,32,36,2,,,,,,,-1,-1,1400,0,ITI,poldrack-single-stim,461,552165,0.0-6.2-111.2,go_nogo_deval,427,,<div></div>,32,1400,test,,,,,,,,,,,,-1,-1,500,0,fixation,poldrack-single-stim,462,552667,0.0-6.2-112.2,go_nogo_deval,427,,<div class = centerbox><div class = fixation>+</div></div>,none,500,test,,,,,,,,,,,,347,32,850,0,stim,poldrack-single-stim,463,553518,0.0-6.2-113.2,go_nogo_deval,427,,<img class = center src='/static/experiments/go_nogo_deval/images/green_triangle.png'></img>,32,850,test,green_triangle,go1,32,37,2,,,,,,,-1,-1,1400,0,ITI,poldrack-single-stim,464,554920,0.0-6.2-114.2,go_nogo_deval,427,,<div></div>,32,1400,test,,,,,,,,,,,,-1,-1,500,0,fixation,poldrack-single-stim,465,555422,0.0-6.2-115.2,go_nogo_deval,427,,<div class = centerbox><div class = fixation>+</div></div>,none,500,test,,,,,,,,,,,,371,32,850,0,stim,poldrack-single-stim,466,556274,0.0-6.2-116.2,go_nogo_deval,427,,<img class = center src='/static/experiments/go_nogo_deval/images/green_triangle.png'></img>,32,850,test,green_triangle,go1,32,38,2,,,,,,,-1,-1,1400,0,ITI,poldrack-single-stim,467,557675,0.0-6.2-117.2,go_nogo_deval,427,,<div></div>,32,1400,test,,,,,,,,,,,,-1,-1,500,0,fixation,poldrack-single-stim,468,558177,0.0-6.2-118.2,go_nogo_deval,427,,<div class = centerbox><div class = fixation>+</div></div>,none,500,test,,,,,,,,,,,,-1,-1,850,0,stim,poldrack-single-stim,469,559029,0.0-6.2-119.2,go_nogo_deval,427,,<img class = center src='/static/experiments/go_nogo_deval/images/purple_circle.png'></img>,32,850,test,purple_circle,nogo1,-1,39,2,,,,,,,-1,-1,1400,0,ITI,poldrack-single-stim,470,560431,0.0-6.2-120.2,go_nogo_deval,427,,<div></div>,32,1400,test,,,,,,,,,,,,-1,-1,500,0,fixation,poldrack-single-stim,471,560933,0.0-6.2-121.2,go_nogo_deval,427,,<div class = centerbox><div class = fixation>+</div></div>,none,500,test,,,,,,,,,,,,339,32,850,0,stim,poldrack-single-stim,472,561784,0.0-6.2-122.2,go_nogo_deval,427,,<img class = center src='/static/experiments/go_nogo_deval/images/green_triangle.png'></img>,32,850,test,green_triangle,go1,32,40,2,,,,,,,-1,-1,1400,0,ITI,poldrack-single-stim,473,563186,0.0-6.2-123.2,go_nogo_deval,427,,<div></div>,32,1400,test,,,,,,,,,,,,-1,-1,500,0,fixation,poldrack-single-stim,474,563687,0.0-6.2-124.2,go_nogo_deval,427,,<div class = centerbox><div class = fixation>+</div></div>,none,500,test,,,,,,,,,,,,465,32,850,0,stim,poldrack-single-stim,475,564539,0.0-6.2-125.2,go_nogo_deval,427,,<img class = center src='/static/experiments/go_nogo_deval/images/red_rhombus.png'></img>,32,850,test,red_rhombus,go2,32,41,2,,,,,,,-1,-1,1400,0,ITI,poldrack-single-stim,476,565940,0.0-6.2-126.2,go_nogo_deval,427,,<div></div>,32,1400,test,,,,,,,,,,,,-1,-1,500,0,fixation,poldrack-single-stim,477,566442,0.0-6.2-127.2,go_nogo_deval,427,,<div class = centerbox><div class = fixation>+</div></div>,none,500,test,,,,,,,,,,,,342,32,850,0,stim,poldrack-single-stim,478,567293,0.0-6.2-128.2,go_nogo_deval,427,,<img class = center src='/static/experiments/go_nogo_deval/images/green_triangle.png'></img>,32,850,test,green_triangle,go1,32,42,2,,,,,,,-1,-1,1400,0,ITI,poldrack-single-stim,479,568694,0.0-6.2-129.2,go_nogo_deval,427,,<div></div>,32,1400,test,,,,,,,,,,,,-1,-1,500,0,fixation,poldrack-single-stim,480,569196,0.0-6.2-130.2,go_nogo_deval,427,,<div class = centerbox><div class = fixation>+</div></div>,none,500,test,,,,,,,,,,,,322,32,850,0,stim,poldrack-single-stim,481,570048,0.0-6.2-131.2,go_nogo_deval,427,,<img class = center src='/static/experiments/go_nogo_deval/images/green_triangle.png'></img>,32,850,test,green_triangle,go1,32,43,2,,,,,,,-1,-1,1400,0,ITI,poldrack-single-stim,482,571449,0.0-6.2-132.2,go_nogo_deval,427,,<div></div>,32,1400,test,,,,,,,,,,,,-1,-1,500,0,fixation,poldrack-single-stim,483,571950,0.0-6.2-133.2,go_nogo_deval,427,,<div class = centerbox><div class = fixation>+</div></div>,none,500,test,,,,,,,,,,,,369,32,850,0,stim,poldrack-single-stim,484,572801,0.0-6.2-134.2,go_nogo_deval,427,,<img class = center src='/static/experiments/go_nogo_deval/images/green_triangle.png'></img>,32,850,test,green_triangle,go1,32,44,2,,,,,,,-1,-1,1400,0,ITI,poldrack-single-stim,485,574203,0.0-6.2-135.2,go_nogo_deval,427,,<div></div>,32,1400,test,,,,,,,,,,,,-1,-1,500,0,fixation,poldrack-single-stim,486,574704,0.0-6.2-136.2,go_nogo_deval,427,,<div class = centerbox><div class = fixation>+</div></div>,none,500,test,,,,,,,,,,,,573,32,850,0,stim,poldrack-single-stim,487,575556,0.0-6.2-137.2,go_nogo_deval,427,,<img class = center src='/static/experiments/go_nogo_deval/images/red_rhombus.png'></img>,32,850,test,red_rhombus,go2,32,45,2,,,,,,,-1,-1,1400,0,ITI,poldrack-single-stim,488,576957,0.0-6.2-138.2,go_nogo_deval,427,,<div></div>,32,1400,test,,,,,,,,,,,,-1,-1,500,0,fixation,poldrack-single-stim,489,577459,0.0-6.2-139.2,go_nogo_deval,427,,<div class = centerbox><div class = fixation>+</div></div>,none,500,test,,,,,,,,,,,,349,32,850,0,stim,poldrack-single-stim,490,578310,0.0-6.2-140.2,go_nogo_deval,427,,<img class = center src='/static/experiments/go_nogo_deval/images/red_rhombus.png'></img>,32,850,test,red_rhombus,go2,32,46,2,,,,,,,-1,-1,1400,0,ITI,poldrack-single-stim,491,579712,0.0-6.2-141.2,go_nogo_deval,427,,<div></div>,32,1400,test,,,,,,,,,,,,-1,-1,500,0,fixation,poldrack-single-stim,492,580213,0.0-6.2-142.2,go_nogo_deval,427,,<div class = centerbox><div class = fixation>+</div></div>,none,500,test,,,,,,,,,,,,386,32,850,0,stim,poldrack-single-stim,493,581065,0.0-6.2-143.2,go_nogo_deval,427,,<img class = center src='/static/experiments/go_nogo_deval/images/red_rhombus.png'></img>,32,850,test,red_rhombus,go2,32,47,2,,,,,,,-1,-1,1400,0,ITI,poldrack-single-stim,494,582466,0.0-6.2-144.2,go_nogo_deval,427,,<div></div>,32,1400,test,,,,,,,,,,,,5621,13,5621,0,practice-no-stop-feedback,poldrack-single-stim,495,588092,0.0-6.3-0.3,go_nogo_deval,427,,<div class = centerbox><p class = block-text><br>Please take this time to read your feedback and to take a short break! Press enter to continue</p><p class = block-text><strong>Average reaction time:  406 ms. Accuracy: 98%</strong></p></div>,13,5621,,,,,,,,,,,,,-1,-1,500,0,fixation,poldrack-single-stim,496,588594,0.0-6.3-1.3,go_nogo_deval,427,,<div class = centerbox><div class = fixation>+</div></div>,none,500,test,,,,,,,,,,,,-1,-1,850,0,stim,poldrack-single-stim,497,589446,0.0-6.3-2.3,go_nogo_deval,427,,<img class = center src='/static/experiments/go_nogo_deval/images/green_triangle.png'></img>,32,850,test,green_triangle,go1,32,0,3,,,,,,,-1,-1,1400,0,ITI,poldrack-single-stim,498,590847,0.0-6.3-3.3,go_nogo_deval,427,,<div></div>,32,1400,test,,,,,,,,,,,,-1,-1,500,0,fixation,poldrack-single-stim,499,591347,0.0-6.3-4.3,go_nogo_deval,427,,<div class = centerbox><div class = fixation>+</div></div>,none,500,test,,,,,,,,,,,,-1,-1,850,0,stim,poldrack-single-stim,500,592199,0.0-6.3-5.3,go_nogo_deval,427,,<img class = center src='/static/experiments/go_nogo_deval/images/blue_pentagon.png'></img>,32,850,test,blue_pentagon,nogo2,-1,1,3,,,,,,,-1,-1,1400,0,ITI,poldrack-single-stim,501,593601,0.0-6.3-6.3,go_nogo_deval,427,,<div></div>,32,1400,test,,,,,,,,,,,,-1,-1,500,0,fixation,poldrack-single-stim,502,594103,0.0-6.3-7.3,go_nogo_deval,427,,<div class = centerbox><div class = fixation>+</div></div>,none,500,test,,,,,,,,,,,,-1,-1,850,0,stim,poldrack-single-stim,503,594954,0.0-6.3-8.3,go_nogo_deval,427,,<img class = center src='/static/experiments/go_nogo_deval/images/purple_circle.png'></img>,32,850,test,purple_circle,nogo1,-1,2,3,,,,,,,-1,-1,1400,0,ITI,poldrack-single-stim,504,596356,0.0-6.3-9.3,go_nogo_deval,427,,<div></div>,32,1400,test,,,,,,,,,,,,-1,-1,500,0,fixation,poldrack-single-stim,505,596857,0.0-6.3-10.3,go_nogo_deval,427,,<div class = centerbox><div class = fixation>+</div></div>,none,500,test,,,,,,,,,,,,-1,-1,850,0,stim,poldrack-single-stim,506,597709,0.0-6.3-11.3,go_nogo_deval,427,,<img class = center src='/static/experiments/go_nogo_deval/images/blue_pentagon.png'></img>,32,850,test,blue_pentagon,nogo2,-1,3,3,,,,,,,-1,-1,1400,0,ITI,poldrack-single-stim,507,599111,0.0-6.3-12.3,go_nogo_deval,427,,<div></div>,32,1400,test,,,,,,,,,,,,-1,-1,500,0,fixation,poldrack-single-stim,508,599612,0.0-6.3-13.3,go_nogo_deval,427,,<div class = centerbox><div class = fixation>+</div></div>,none,500,test,,,,,,,,,,,,-1,-1,850,0,stim,poldrack-single-stim,509,600464,0.0-6.3-14.3,go_nogo_deval,427,,<img class = center src='/static/experiments/go_nogo_deval/images/purple_circle.png'></img>,32,850,test,purple_circle,nogo1,-1,4,3,,,,,,,-1,-1,1400,0,ITI,poldrack-single-stim,510,601866,0.0-6.3-15.3,go_nogo_deval,427,,<div></div>,32,1400,test,,,,,,,,,,,,-1,-1,500,0,fixation,poldrack-single-stim,511,602367,0.0-6.3-16.3,go_nogo_deval,427,,<div class = centerbox><div class = fixation>+</div></div>,none,500,test,,,,,,,,,,,,428,32,850,0,stim,poldrack-single-stim,512,603219,0.0-6.3-17.3,go_nogo_deval,427,,<img class = center src='/static/experiments/go_nogo_deval/images/green_triangle.png'></img>,32,850,test,green_triangle,go1,32,5,3,,,,,,,1321,32,1400,0,ITI,poldrack-single-stim,513,604621,0.0-6.3-18.3,go_nogo_deval,427,,<div></div>,32,1400,test,,,,,,,,,,,,-1,-1,500,0,fixation,poldrack-single-stim,514,605122,0.0-6.3-19.3,go_nogo_deval,427,,<div class = centerbox><div class = fixation>+</div></div>,none,500,test,,,,,,,,,,,,475,32,850,0,stim,poldrack-single-stim,515,605974,0.0-6.3-20.3,go_nogo_deval,427,,<img class = center src='/static/experiments/go_nogo_deval/images/red_rhombus.png'></img>,32,850,test,red_rhombus,go2,32,6,3,,,,,,,-1,-1,1400,0,ITI,poldrack-single-stim,516,607376,0.0-6.3-21.3,go_nogo_deval,427,,<div></div>,32,1400,test,,,,,,,,,,,,-1,-1,500,0,fixation,poldrack-single-stim,517,607877,0.0-6.3-22.3,go_nogo_deval,427,,<div class = centerbox><div class = fixation>+</div></div>,none,500,test,,,,,,,,,,,,408,32,850,0,stim,poldrack-single-stim,518,608729,0.0-6.3-23.3,go_nogo_deval,427,,<img class = center src='/static/experiments/go_nogo_deval/images/red_rhombus.png'></img>,32,850,test,red_rhombus,go2,32,7,3,,,,,,,-1,-1,1400,0,ITI,poldrack-single-stim,519,610130,0.0-6.3-24.3,go_nogo_deval,427,,<div></div>,32,1400,test,,,,,,,,,,,,-1,-1,500,0,fixation,poldrack-single-stim,520,610632,0.0-6.3-25.3,go_nogo_deval,427,,<div class = centerbox><div class = fixation>+</div></div>,none,500,test,,,,,,,,,,,,-1,-1,850,0,stim,poldrack-single-stim,521,611484,0.0-6.3-26.3,go_nogo_deval,427,,<img class = center src='/static/experiments/go_nogo_deval/images/blue_pentagon.png'></img>,32,850,test,blue_pentagon,nogo2,-1,8,3,,,,,,,-1,-1,1400,0,ITI,poldrack-single-stim,522,612886,0.0-6.3-27.3,go_nogo_deval,427,,<div></div>,32,1400,test,,,,,,,,,,,,-1,-1,500,0,fixation,poldrack-single-stim,523,613388,0.0-6.3-28.3,go_nogo_deval,427,,<div class = centerbox><div class = fixation>+</div></div>,none,500,test,,,,,,,,,,,,-1,-1,850,0,stim,poldrack-single-stim,524,614239,0.0-6.3-29.3,go_nogo_deval,427,,<img class = center src='/static/experiments/go_nogo_deval/images/purple_circle.png'></img>,32,850,test,purple_circle,nogo1,-1,9,3,,,,,,,-1,-1,1400,0,ITI,poldrack-single-stim,525,615640,0.0-6.3-30.3,go_nogo_deval,427,,<div></div>,32,1400,test,,,,,,,,,,,,-1,-1,500,0,fixation,poldrack-single-stim,526,616142,0.0-6.3-31.3,go_nogo_deval,427,,<div class = centerbox><div class = fixation>+</div></div>,none,500,test,,,,,,,,,,,,503,32,850,0,stim,poldrack-single-stim,527,616993,0.0-6.3-32.3,go_nogo_deval,427,,<img class = center src='/static/experiments/go_nogo_deval/images/red_rhombus.png'></img>,32,850,test,red_rhombus,go2,32,10,3,,,,,,,-1,-1,1400,0,ITI,poldrack-single-stim,528,618394,0.0-6.3-33.3,go_nogo_deval,427,,<div></div>,32,1400,test,,,,,,,,,,,,-1,-1,500,0,fixation,poldrack-single-stim,529,618896,0.0-6.3-34.3,go_nogo_deval,427,,<div class = centerbox><div class = fixation>+</div></div>,none,500,test,,,,,,,,,,,,359,32,850,0,stim,poldrack-single-stim,530,619748,0.0-6.3-35.3,go_nogo_deval,427,,<img class = center src='/static/experiments/go_nogo_deval/images/red_rhombus.png'></img>,32,850,test,red_rhombus,go2,32,11,3,,,,,,,-1,-1,1400,0,ITI,poldrack-single-stim,531,621149,0.0-6.3-36.3,go_nogo_deval,427,,<div></div>,32,1400,test,,,,,,,,,,,,-1,-1,500,0,fixation,poldrack-single-stim,532,621650,0.0-6.3-37.3,go_nogo_deval,427,,<div class = centerbox><div class = fixation>+</div></div>,none,500,test,,,,,,,,,,,,383,32,850,0,stim,poldrack-single-stim,533,622501,0.0-6.3-38.3,go_nogo_deval,427,,<img class = center src='/static/experiments/go_nogo_deval/images/green_triangle.png'></img>,32,850,test,green_triangle,go1,32,12,3,,,,,,,-1,-1,1400,0,ITI,poldrack-single-stim,534,623903,0.0-6.3-39.3,go_nogo_deval,427,,<div></div>,32,1400,test,,,,,,,,,,,,-1,-1,500,0,fixation,poldrack-single-stim,535,624404,0.0-6.3-40.3,go_nogo_deval,427,,<div class = centerbox><div class = fixation>+</div></div>,none,500,test,,,,,,,,,,,,329,32,850,0,stim,poldrack-single-stim,536,625256,0.0-6.3-41.3,go_nogo_deval,427,,<img class = center src='/static/experiments/go_nogo_deval/images/green_triangle.png'></img>,32,850,test,green_triangle,go1,32,13,3,,,,,,,-1,-1,1400,0,ITI,poldrack-single-stim,537,626657,0.0-6.3-42.3,go_nogo_deval,427,,<div></div>,32,1400,test,,,,,,,,,,,,-1,-1,500,0,fixation,poldrack-single-stim,538,627159,0.0-6.3-43.3,go_nogo_deval,427,,<div class = centerbox><div class = fixation>+</div></div>,none,500,test,,,,,,,,,,,,-1,-1,850,0,stim,poldrack-single-stim,539,628011,0.0-6.3-44.3,go_nogo_deval,427,,<img class = center src='/static/experiments/go_nogo_deval/images/purple_circle.png'></img>,32,850,test,purple_circle,nogo1,-1,14,3,,,,,,,-1,-1,1400,0,ITI,poldrack-single-stim,540,629412,0.0-6.3-45.3,go_nogo_deval,427,,<div></div>,32,1400,test,,,,,,,,,,,,-1,-1,500,0,fixation,poldrack-single-stim,541,629914,0.0-6.3-46.3,go_nogo_deval,427,,<div class = centerbox><div class = fixation>+</div></div>,none,500,test,,,,,,,,,,,,-1,-1,850,0,stim,poldrack-single-stim,542,630766,0.0-6.3-47.3,go_nogo_deval,427,,<img class = center src='/static/experiments/go_nogo_deval/images/purple_circle.png'></img>,32,850,test,purple_circle,nogo1,-1,15,3,,,,,,,-1,-1,1400,0,ITI,poldrack-single-stim,543,632168,0.0-6.3-48.3,go_nogo_deval,427,,<div></div>,32,1400,test,,,,,,,,,,,,-1,-1,500,0,fixation,poldrack-single-stim,544,632669,0.0-6.3-49.3,go_nogo_deval,427,,<div class = centerbox><div class = fixation>+</div></div>,none,500,test,,,,,,,,,,,,-1,-1,850,0,stim,poldrack-single-stim,545,633521,0.0-6.3-50.3,go_nogo_deval,427,,<img class = center src='/static/experiments/go_nogo_deval/images/purple_circle.png'></img>,32,850,test,purple_circle,nogo1,-1,16,3,,,,,,,-1,-1,1400,0,ITI,poldrack-single-stim,546,634923,0.0-6.3-51.3,go_nogo_deval,427,,<div></div>,32,1400,test,,,,,,,,,,,,-1,-1,500,0,fixation,poldrack-single-stim,547,635424,0.0-6.3-52.3,go_nogo_deval,427,,<div class = centerbox><div class = fixation>+</div></div>,none,500,test,,,,,,,,,,,,424,32,850,0,stim,poldrack-single-stim,548,636276,0.0-6.3-53.3,go_nogo_deval,427,,<img class = center src='/static/experiments/go_nogo_deval/images/red_rhombus.png'></img>,32,850,test,red_rhombus,go2,32,17,3,,,,,,,-1,-1,1400,0,ITI,poldrack-single-stim,549,637678,0.0-6.3-54.3,go_nogo_deval,427,,<div></div>,32,1400,test,,,,,,,,,,,,-1,-1,500,0,fixation,poldrack-single-stim,550,638180,0.0-6.3-55.3,go_nogo_deval,427,,<div class = centerbox><div class = fixation>+</div></div>,none,500,test,,,,,,,,,,,,-1,-1,850,0,stim,poldrack-single-stim,551,639031,0.0-6.3-56.3,go_nogo_deval,427,,<img class = center src='/static/experiments/go_nogo_deval/images/blue_pentagon.png'></img>,32,850,test,blue_pentagon,nogo2,-1,18,3,,,,,,,-1,-1,1400,0,ITI,poldrack-single-stim,552,640432,0.0-6.3-57.3,go_nogo_deval,427,,<div></div>,32,1400,test,,,,,,,,,,,,-1,-1,500,0,fixation,poldrack-single-stim,553,640933,0.0-6.3-58.3,go_nogo_deval,427,,<div class = centerbox><div class = fixation>+</div></div>,none,500,test,,,,,,,,,,,,417,32,850,0,stim,poldrack-single-stim,554,641785,0.0-6.3-59.3,go_nogo_deval,427,,<img class = center src='/static/experiments/go_nogo_deval/images/red_rhombus.png'></img>,32,850,test,red_rhombus,go2,32,19,3,,,,,,,-1,-1,1400,0,ITI,poldrack-single-stim,555,643187,0.0-6.3-60.3,go_nogo_deval,427,,<div></div>,32,1400,test,,,,,,,,,,,,-1,-1,500,0,fixation,poldrack-single-stim,556,643688,0.0-6.3-61.3,go_nogo_deval,427,,<div class = centerbox><div class = fixation>+</div></div>,none,500,test,,,,,,,,,,,,428,32,850,0,stim,poldrack-single-stim,557,644539,0.0-6.3-62.3,go_nogo_deval,427,,<img class = center src='/static/experiments/go_nogo_deval/images/green_triangle.png'></img>,32,850,test,green_triangle,go1,32,20,3,,,,,,,-1,-1,1400,0,ITI,poldrack-single-stim,558,645941,0.0-6.3-63.3,go_nogo_deval,427,,<div></div>,32,1400,test,,,,,,,,,,,,-1,-1,500,0,fixation,poldrack-single-stim,559,646443,0.0-6.3-64.3,go_nogo_deval,427,,<div class = centerbox><div class = fixation>+</div></div>,none,500,test,,,,,,,,,,,,352,32,850,0,stim,poldrack-single-stim,560,647295,0.0-6.3-65.3,go_nogo_deval,427,,<img class = center src='/static/experiments/go_nogo_deval/images/green_triangle.png'></img>,32,850,test,green_triangle,go1,32,21,3,,,,,,,-1,-1,1400,0,ITI,poldrack-single-stim,561,648697,0.0-6.3-66.3,go_nogo_deval,427,,<div></div>,32,1400,test,,,,,,,,,,,,-1,-1,500,0,fixation,poldrack-single-stim,562,649198,0.0-6.3-67.3,go_nogo_deval,427,,<div class = centerbox><div class = fixation>+</div></div>,none,500,test,,,,,,,,,,,,421,32,850,0,stim,poldrack-single-stim,563,650049,0.0-6.3-68.3,go_nogo_deval,427,,<img class = center src='/static/experiments/go_nogo_deval/images/red_rhombus.png'></img>,32,850,test,red_rhombus,go2,32,22,3,,,,,,,-1,-1,1400,0,ITI,poldrack-single-stim,564,651451,0.0-6.3-69.3,go_nogo_deval,427,,<div></div>,32,1400,test,,,,,,,,,,,,-1,-1,500,0,fixation,poldrack-single-stim,565,651952,0.0-6.3-70.3,go_nogo_deval,427,,<div class = centerbox><div class = fixation>+</div></div>,none,500,test,,,,,,,,,,,,-1,-1,850,0,stim,poldrack-single-stim,566,652803,0.0-6.3-71.3,go_nogo_deval,427,,<img class = center src='/static/experiments/go_nogo_deval/images/purple_circle.png'></img>,32,850,test,purple_circle,nogo1,-1,23,3,,,,,,,-1,-1,1400,0,ITI,poldrack-single-stim,567,654205,0.0-6.3-72.3,go_nogo_deval,427,,<div></div>,32,1400,test,,,,,,,,,,,,-1,-1,500,0,fixation,poldrack-single-stim,568,654706,0.0-6.3-73.3,go_nogo_deval,427,,<div class = centerbox><div class = fixation>+</div></div>,none,500,test,,,,,,,,,,,,436,32,850,0,stim,poldrack-single-stim,569,655558,0.0-6.3-74.3,go_nogo_deval,427,,<img class = center src='/static/experiments/go_nogo_deval/images/red_rhombus.png'></img>,32,850,test,red_rhombus,go2,32,24,3,,,,,,,-1,-1,1400,0,ITI,poldrack-single-stim,570,656958,0.0-6.3-75.3,go_nogo_deval,427,,<div></div>,32,1400,test,,,,,,,,,,,,-1,-1,500,0,fixation,poldrack-single-stim,571,657460,0.0-6.3-76.3,go_nogo_deval,427,,<div class = centerbox><div class = fixation>+</div></div>,none,500,test,,,,,,,,,,,,393,32,850,0,stim,poldrack-single-stim,572,658312,0.0-6.3-77.3,go_nogo_deval,427,,<img class = center src='/static/experiments/go_nogo_deval/images/green_triangle.png'></img>,32,850,test,green_triangle,go1,32,25,3,,,,,,,-1,-1,1400,0,ITI,poldrack-single-stim,573,659714,0.0-6.3-78.3,go_nogo_deval,427,,<div></div>,32,1400,test,,,,,,,,,,,