text,rt,key_press,block_duration,timing_post_trial,trial_id,trial_type,trial_index,time_elapsed,internal_node_id,exp_id,subject_ID,view_history,stimulus,possible_responses,stim_duration,exp_stage,stim,go_nogo_type,correct_response,current_trial,current_block,chosenStim,chosenCond,stimLeft,cond_left,stimRight,cond_right<div class = centerbox><p class = center-block-text>Welcome to the task!</p><p class = center-block-text>Press<strong> enter</strong> to continue.</p></div>,2006,13,2006,0,welcome,poldrack-text,0,2008,0.0-0.0,go_nogo_deval,459,,,,,,,,,,,,,,,,,60325,,,,instruction,poldrack-instructions,1,62334,0.0-1.0,go_nogo_deval,459,"[{""page_index"":0,""viewing_time"":4198},{""page_index"":1,""viewing_time"":56126}]",,,,,,,,,,,,,,,,3865,13,3865,0,stop_intro_phase1,poldrack-single-stim,2,67202,0.0-2.0,go_nogo_deval,459,,"<div class = centerbox><p class = block-text>We will now start the practice for the experiment.<br><br>For these trials, you must press the <strong>spacebar </strong> or have <strong>no response</strong> depending on the shape of the stimulus.  Make sure to respond as quickly and accurately as possible to the shape. <br><br> The responses for each shape are as follows: <ul list-text><li>circle: spacebar</li><li>triangle: spacebar</li><li>rhombus: no response</li><li>pentagon: no response</li></ul></p><p class = block-text>Remember these rules before you proceed.</p><p class = block-text>Press <strong> enter</strong> to begin.</p></div>",13,3865,,,,,,,,,,,,,2641,13,2641,0,practice-no-stop-feedback,poldrack-single-stim,3,69845,0.0-3.0-0.0,go_nogo_deval,459,,<div class = centerbox><p class = block-text>We will now start with a practice session. In this practice concentrate on responding quickly and accurately to each stimuli unless it requires no response.</p><p class = block-text>Press enter to continue.</p></div>,13,2641,,,,,,,,,,,,,-1,-1,500,0,prompt_fixation,poldrack-single-stim,4,70348,0.0-3.0-1.0,go_nogo_deval,459,,<div class = centerbox><div class = fixation>+</div></div>,none,500,practice,,,,,,,,,,,,463,32,850,0,stim,poldrack-single-stim,5,71201,0.0-3.0-2.0,go_nogo_deval,459,,<img class = center src='/static/experiments/go_nogo_deval/images/blue_triangle.png'></img>,32,850,practice,blue_triangle,go2,32,0,0,,,,,,,-1,-1,1400,0,ITI,poldrack-single-stim,6,72602,0.0-3.0-3.0,go_nogo_deval,459,,<div></div>,32,1400,practice,,,,,,,,,,,,-1,-1,500,0,prompt_fixation,poldrack-single-stim,7,73103,0.0-3.0-4.0,go_nogo_deval,459,,<div class = centerbox><div class = fixation>+</div></div>,none,500,practice,,,,,,,,,,,,-1,-1,850,0,stim,poldrack-single-stim,8,73955,0.0-3.0-5.0,go_nogo_deval,459,,<img class = center src='/static/experiments/go_nogo_deval/images/purple_pentagon.png'></img>,32,850,practice,purple_pentagon,nogo2,-1,1,0,,,,,,,-1,-1,1400,0,ITI,poldrack-single-stim,9,75357,0.0-3.0-6.0,go_nogo_deval,459,,<div></div>,32,1400,practice,,,,,,,,,,,,-1,-1,500,0,prompt_fixation,poldrack-single-stim,10,75859,0.0-3.0-7.0,go_nogo_deval,459,,<div class = centerbox><div class = fixation>+</div></div>,none,500,practice,,,,,,,,,,,,826,32,850,0,stim,poldrack-single-stim,11,76711,0.0-3.0-8.0,go_nogo_deval,459,,<img class = center src='/static/experiments/go_nogo_deval/images/green_rhombus.png'></img>,32,850,practice,green_rhombus,nogo1,-1,2,0,,,,,,,-1,-1,1400,0,ITI,poldrack-single-stim,12,78111,0.0-3.0-9.0,go_nogo_deval,459,,<div></div>,32,1400,practice,,,,,,,,,,,,-1,-1,500,0,prompt_fixation,poldrack-single-stim,13,78614,0.0-3.0-10.0,go_nogo_deval,459,,<div class = centerbox><div class = fixation>+</div></div>,none,500,practice,,,,,,,,,,,,534,32,850,0,stim,poldrack-single-stim,14,79465,0.0-3.0-11.0,go_nogo_deval,459,,<img class = center src='/static/experiments/go_nogo_deval/images/red_circle.png'></img>,32,850,practice,red_circle,go1,32,3,0,,,,,,,-1,-1,1400,0,ITI,poldrack-single-stim,15,80867,0.0-3.0-12.0,go_nogo_deval,459,,<div></div>,32,1400,practice,,,,,,,,,,,,-1,-1,500,0,prompt_fixation,poldrack-single-stim,16,81370,0.0-3.0-13.0,go_nogo_deval,459,,<div class = centerbox><div class = fixation>+</div></div>,none,500,practice,,,,,,,,,,,,388,32,850,0,stim,poldrack-single-stim,17,82221,0.0-3.0-14.0,go_nogo_deval,459,,<img class = center src='/static/experiments/go_nogo_deval/images/blue_triangle.png'></img>,32,850,practice,blue_triangle,go2,32,4,0,,,,,,,-1,-1,1400,0,ITI,poldrack-single-stim,18,83623,0.0-3.0-15.0,go_nogo_deval,459,,<div></div>,32,1400,practice,,,,,,,,,,,,-1,-1,500,0,prompt_fixation,poldrack-single-stim,19,84124,0.0-3.0-16.0,go_nogo_deval,459,,<div class = centerbox><div class = fixation>+</div></div>,none,500,practice,,,,,,,,,,,,-1,-1,850,0,stim,poldrack-single-stim,20,84976,0.0-3.0-17.0,go_nogo_deval,459,,<img class = center src='/static/experiments/go_nogo_deval/images/blue_triangle.png'></img>,32,850,practice,blue_triangle,go2,32,5,0,,,,,,,134,32,1400,0,ITI,poldrack-single-stim,21,86377,0.0-3.0-18.0,go_nogo_deval,459,,<div></div>,32,1400,practice,,,,,,,,,,,,-1,-1,500,0,prompt_fixation,poldrack-single-stim,22,86880,0.0-3.0-19.0,go_nogo_deval,459,,<div class = centerbox><div class = fixation>+</div></div>,none,500,practice,,,,,,,,,,,,312,32,850,0,stim,poldrack-single-stim,23,87732,0.0-3.0-20.0,go_nogo_deval,459,,<img class = center src='/static/experiments/go_nogo_deval/images/red_circle.png'></img>,32,850,practice,red_circle,go1,32,6,0,,,,,,,-1,-1,1400,0,ITI,poldrack-single-stim,24,89133,0.0-3.0-21.0,go_nogo_deval,459,,<div></div>,32,1400,practice,,,,,,,,,,,,-1,-1,500,0,prompt_fixation,poldrack-single-stim,25,89636,0.0-3.0-22.0,go_nogo_deval,459,,<div class = centerbox><div class = fixation>+</div></div>,none,500,practice,,,,,,,,,,,,335,32,850,0,stim,poldrack-single-stim,26,90487,0.0-3.0-23.0,go_nogo_deval,459,,<img class = center src='/static/experiments/go_nogo_deval/images/blue_triangle.png'></img>,32,850,practice,blue_triangle,go2,32,7,0,,,,,,,-1,-1,1400,0,ITI,poldrack-single-stim,27,91889,0.0-3.0-24.0,go_nogo_deval,459,,<div></div>,32,1400,practice,,,,,,,,,,,,-1,-1,500,0,prompt_fixation,poldrack-single-stim,28,92390,0.0-3.0-25.0,go_nogo_deval,459,,<div class = centerbox><div class = fixation>+</div></div>,none,500,practice,,,,,,,,,,,,302,32,850,0,stim,poldrack-single-stim,29,93242,0.0-3.0-26.0,go_nogo_deval,459,,<img class = center src='/static/experiments/go_nogo_deval/images/red_circle.png'></img>,32,850,practice,red_circle,go1,32,8,0,,,,,,,-1,-1,1400,0,ITI,poldrack-single-stim,30,94643,0.0-3.0-27.0,go_nogo_deval,459,,<div></div>,32,1400,practice,,,,,,,,,,,,-1,-1,500,0,prompt_fixation,poldrack-single-stim,31,95145,0.0-3.0-28.0,go_nogo_deval,459,,<div class = centerbox><div class = fixation>+</div></div>,none,500,practice,,,,,,,,,,,,338,32,850,0,stim,poldrack-single-stim,32,95997,0.0-3.0-29.0,go_nogo_deval,459,,<img class = center src='/static/experiments/go_nogo_deval/images/blue_triangle.png'></img>,32,850,practice,blue_triangle,go2,32,9,0,,,,,,,-1,-1,1400,0,ITI,poldrack-single-stim,33,97399,0.0-3.0-30.0,go_nogo_deval,459,,<div></div>,32,1400,practice,,,,,,,,,,,,-1,-1,500,0,prompt_fixation,poldrack-single-stim,34,97901,0.0-3.0-31.0,go_nogo_deval,459,,<div class = centerbox><div class = fixation>+</div></div>,none,500,practice,,,,,,,,,,,,439,32,850,0,stim,poldrack-single-stim,35,98753,0.0-3.0-32.0,go_nogo_deval,459,,<img class = center src='/static/experiments/go_nogo_deval/images/red_circle.png'></img>,32,850,practice,red_circle,go1,32,10,0,,,,,,,-1,-1,1400,0,ITI,poldrack-single-stim,36,100155,0.0-3.0-33.0,go_nogo_deval,459,,<div></div>,32,1400,practice,,,,,,,,,,,,-1,-1,500,0,prompt_fixation,poldrack-single-stim,37,100656,0.0-3.0-34.0,go_nogo_deval,459,,<div class = centerbox><div class = fixation>+</div></div>,none,500,practice,,,,,,,,,,,,329,32,850,0,stim,poldrack-single-stim,38,101508,0.0-3.0-35.0,go_nogo_deval,459,,<img class = center src='/static/experiments/go_nogo_deval/images/blue_triangle.png'></img>,32,850,practice,blue_triangle,go2,32,11,0,,,,,,,-1,-1,1400,0,ITI,poldrack-single-stim,39,102909,0.0-3.0-36.0,go_nogo_deval,459,,<div></div>,32,1400,practice,,,,,,,,,,,,-1,-1,500,0,prompt_fixation,poldrack-single-stim,40,103411,0.0-3.0-37.0,go_nogo_deval,459,,<div class = centerbox><div class = fixation>+</div></div>,none,500,practice,,,,,,,,,,,,319,32,850,0,stim,poldrack-single-stim,41,104263,0.0-3.0-38.0,go_nogo_deval,459,,<img class = center src='/static/experiments/go_nogo_deval/images/red_circle.png'></img>,32,850,practice,red_circle,go1,32,12,0,,,,,,,-1,-1,1400,0,ITI,poldrack-single-stim,42,105665,0.0-3.0-39.0,go_nogo_deval,459,,<div></div>,32,1400,practice,,,,,,,,,,,,-1,-1,500,0,prompt_fixation,poldrack-single-stim,43,106166,0.0-3.0-40.0,go_nogo_deval,459,,<div class = centerbox><div class = fixation>+</div></div>,none,500,practice,,,,,,,,,,,,-1,-1,850,0,stim,poldrack-single-stim,44,107018,0.0-3.0-41.0,go_nogo_deval,459,,<img class = center src='/static/experiments/go_nogo_deval/images/green_rhombus.png'></img>,32,850,practice,green_rhombus,nogo1,-1,13,0,,,,,,,-1,-1,1400,0,ITI,poldrack-single-stim,45,108420,0.0-3.0-42.0,go_nogo_deval,459,,<div></div>,32,1400,practice,,,,,,,,,,,,-1,-1,500,0,prompt_fixation,poldrack-single-stim,46,108922,0.0-3.0-43.0,go_nogo_deval,459,,<div class = centerbox><div class = fixation>+</div></div>,none,500,practice,,,,,,,,,,,,-1,-1,850,0,stim,poldrack-single-stim,47,109774,0.0-3.0-44.0,go_nogo_deval,459,,<img class = center src='/static/experiments/go_nogo_deval/images/purple_pentagon.png'></img>,32,850,practice,purple_pentagon,nogo2,-1,14,0,,,,,,,-1,-1,1400,0,ITI,poldrack-single-stim,48,111175,0.0-3.0-45.0,go_nogo_deval,459,,<div></div>,32,1400,practice,,,,,,,,,,,,-1,-1,500,0,prompt_fixation,poldrack-single-stim,49,111677,0.0-3.0-46.0,go_nogo_deval,459,,<div class = centerbox><div class = fixation>+</div></div>,none,500,practice,,,,,,,,,,,,321,32,850,0,stim,poldrack-single-stim,50,112529,0.0-3.0-47.0,go_nogo_deval,459,,<img class = center src='/static/experiments/go_nogo_deval/images/red_circle.png'></img>,32,850,practice,red_circle,go1,32,15,0,,,,,,,-1,-1,1400,0,ITI,poldrack-single-stim,51,113931,0.0-3.0-48.0,go_nogo_deval,459,,<div></div>,32,1400,practice,,,,,,,,,,,,-1,-1,500,0,prompt_fixation,poldrack-single-stim,52,114433,0.0-3.0-49.0,go_nogo_deval,459,,<div class = centerbox><div class = fixation>+</div></div>,none,500,practice,,,,,,,,,,,,-1,-1,850,0,stim,poldrack-single-stim,53,115285,0.0-3.0-50.0,go_nogo_deval,459,,<img class = center src='/static/experiments/go_nogo_deval/images/green_rhombus.png'></img>,32,850,practice,green_rhombus,nogo1,-1,16,0,,,,,,,-1,-1,1400,0,ITI,poldrack-single-stim,54,116687,0.0-3.0-51.0,go_nogo_deval,459,,<div></div>,32,1400,practice,,,,,,,,,,,,-1,-1,500,0,prompt_fixation,poldrack-single-stim,55,117188,0.0-3.0-52.0,go_nogo_deval,459,,<div class = centerbox><div class = fixation>+</div></div>,none,500,practice,,,,,,,,,,,,-1,-1,850,0,stim,poldrack-single-stim,56,118040,0.0-3.0-53.0,go_nogo_deval,459,,<img class = center src='/static/experiments/go_nogo_deval/images/purple_pentagon.png'></img>,32,850,practice,purple_pentagon,nogo2,-1,17,0,,,,,,,-1,-1,1400,0,ITI,poldrack-single-stim,57,119441,0.0-3.0-54.0,go_nogo_deval,459,,<div></div>,32,1400,practice,,,,,,,,,,,,3379,13,3379,0,practice-no-stop-feedback,poldrack-single-stim,58,122822,0.0-4.0,go_nogo_deval,459,,<div class = centerbox><p class = block-text><br>Please take this time to read your feedback and to take a short break! Press enter to continue</p><p class = block-text><strong>Average reaction time:  409 ms. Accuracy: 89%</strong></p><p class = block-text>Done with this practice.</p></div>,13,3379,,,,,,,,,,,,,46766,13,46766,0,main_stop_intro_phase3,poldrack-single-stim,59,169589,0.0-5.0,go_nogo_deval,459,,"<div class = centerbox><p class = block-text>We will now start the main phase of the experiment.<br><br>These trials are the same as the trials that you have just completed. <br><br>The rules for each shape are as follows:  <br><ul list-text><li>circle: spacebar</li><li>triangle: spacebar</li><li>rhombus: no response</li><li>pentagon: no response</li></ul></p><p class = block-text>Remember these rules before you proceed, as they will no longer be presented during the trial.</p><p class = block-text>Press <strong> enter</strong> to begin.</p></div>",13,46766,,,,,,,,,,,,,2069,13,2069,0,practice-no-stop-feedback,poldrack-single-stim,60,171658,0.0-6.0-0.0,go_nogo_deval,459,,"<div class = centerbox><p class = block-text>We will now start with a test session. In this test, concentrate on responding quickly and accurately to each stimuli unless it requires no response.</p><p class = block-text>Press enter to continue.</p></div>",13,2069,,,,,,,,,,,,,-1,-1,500,0,fixation,poldrack-single-stim,61,172160,0.0-6.0-1.0,go_nogo_deval,459,,<div class = centerbox><div class = fixation>+</div></div>,none,500,test,,,,,,,,,,,,420,32,850,0,stim,poldrack-single-stim,62,173012,0.0-6.0-2.0,go_nogo_deval,459,,<img class = center src='/static/experiments/go_nogo_deval/images/blue_triangle.png'></img>,32,850,test,blue_triangle,go2,32,0,0,,,,,,,-1,-1,1400,0,ITI,poldrack-single-stim,63,174414,0.0-6.0-3.0,go_nogo_deval,459,,<div></div>,32,1400,test,,,,,,,,,,,,-1,-1,500,0,fixation,poldrack-single-stim,64,174916,0.0-6.0-4.0,go_nogo_deval,459,,<div class = centerbox><div class = fixation>+</div></div>,none,500,test,,,,,,,,,,,,308,32,850,0,stim,poldrack-single-stim,65,175768,0.0-6.0-5.0,go_nogo_deval,459,,<img class = center src='/static/experiments/go_nogo_deval/images/red_circle.png'></img>,32,850,test,red_circle,go1,32,1,0,,,,,,,-1,-1,1400,0,ITI,poldrack-single-stim,66,177169,0.0-6.0-6.0,go_nogo_deval,459,,<div></div>,32,1400,test,,,,,,,,,,,,-1,-1,500,0,fixation,poldrack-single-stim,67,177670,0.0-6.0-7.0,go_nogo_deval,459,,<div class = centerbox><div class = fixation>+</div></div>,none,500,test,,,,,,,,,,,,298,32,850,0,stim,poldrack-single-stim,68,178521,0.0-6.0-8.0,go_nogo_deval,459,,<img class = center src='/static/experiments/go_nogo_deval/images/blue_triangle.png'></img>,32,850,test,blue_triangle,go2,32,2,0,,,,,,,-1,-1,1400,0,ITI,poldrack-single-stim,69,179923,0.0-6.0-9.0,go_nogo_deval,459,,<div></div>,32,1400,test,,,,,,,,,,,,-1,-1,500,0,fixation,poldrack-single-stim,70,180425,0.0-6.0-10.0,go_nogo_deval,459,,<div class = centerbox><div class = fixation>+</div></div>,none,500,test,,,,,,,,,,,,436,32,850,0,stim,poldrack-single-stim,71,181277,0.0-6.0-11.0,go_nogo_deval,459,,<img class = center src='/static/experiments/go_nogo_deval/images/blue_triangle.png'></img>,32,850,test,blue_triangle,go2,32,3,0,,,,,,,-1,-1,1400,0,ITI,poldrack-single-stim,72,182678,0.0-6.0-12.0,go_nogo_deval,459,,<div></div>,32,1400,test,,,,,,,,,,,,-1,-1,500,0,fixation,poldrack-single-stim,73,183180,0.0-6.0-13.0,go_nogo_deval,459,,<div class = centerbox><div class = fixation>+</div></div>,none,500,test,,,,,,,,,,,,336,32,850,0,stim,poldrack-single-stim,74,184032,0.0-6.0-14.0,go_nogo_deval,459,,<img class = center src='/static/experiments/go_nogo_deval/images/red_circle.png'></img>,32,850,test,red_circle,go1,32,4,0,,,,,,,-1,-1,1400,0,ITI,poldrack-single-stim,75,185434,0.0-6.0-15.0,go_nogo_deval,459,,<div></div>,32,1400,test,,,,,,,,,,,,-1,-1,500,0,fixation,poldrack-single-stim,76,185935,0.0-6.0-16.0,go_nogo_deval,459,,<div class = centerbox><div class = fixation>+</div></div>,none,500,test,,,,,,,,,,,,292,32,850,0,stim,poldrack-single-stim,77,186787,0.0-6.0-17.0,go_nogo_deval,459,,<img class = center src='/static/experiments/go_nogo_deval/images/blue_triangle.png'></img>,32,850,test,blue_triangle,go2,32,5,0,,,,,,,-1,-1,1400,0,ITI,poldrack-single-stim,78,188189,0.0-6.0-18.0,go_nogo_deval,459,,<div></div>,32,1400,test,,,,,,,,,,,,-1,-1,500,0,fixation,poldrack-single-stim,79,188690,0.0-6.0-19.0,go_nogo_deval,459,,<div class = centerbox><div class = fixation>+</div></div>,none,500,test,,,,,,,,,,,,269,32,850,0,stim,poldrack-single-stim,80,189542,0.0-6.0-20.0,go_nogo_deval,459,,<img class = center src='/static/experiments/go_nogo_deval/images/red_circle.png'></img>,32,850,test,red_circle,go1,32,6,0,,,,,,,-1,-1,1400,0,ITI,poldrack-single-stim,81,190944,0.0-6.0-21.0,go_nogo_deval,459,,<div></div>,32,1400,test,,,,,,,,,,,,-1,-1,500,0,fixation,poldrack-single-stim,82,191446,0.0-6.0-22.0,go_nogo_deval,459,,<div class = centerbox><div class = fixation>+</div></div>,none,500,test,,,,,,,,,,,,-1,-1,850,0,stim,poldrack-single-stim,83,192298,0.0-6.0-23.0,go_nogo_deval,459,,<img class = center src='/static/experiments/go_nogo_deval/images/green_rhombus.png'></img>,32,850,test,green_rhombus,nogo1,-1,7,0,,,,,,,-1,-1,1400,0,ITI,poldrack-single-stim,84,193701,0.0-6.0-24.0,go_nogo_deval,459,,<div></div>,32,1400,test,,,,,,,,,,,,-1,-1,500,0,fixation,poldrack-single-stim,85,194202,0.0-6.0-25.0,go_nogo_deval,459,,<div class = centerbox><div class = fixation>+</div></div>,none,500,test,,,,,,,,,,,,370,32,850,0,stim,poldrack-single-stim,86,195053,0.0-6.0-26.0,go_nogo_deval,459,,<img class = center src='/static/experiments/go_nogo_deval/images/red_circle.png'></img>,32,850,test,red_circle,go1,32,8,0,,,,,,,-1,-1,1400,0,ITI,poldrack-single-stim,87,196455,0.0-6.0-27.0,go_nogo_deval,459,,<div></div>,32,1400,test,,,,,,,,,,,,-1,-1,500,0,fixation,poldrack-single-stim,88,196957,0.0-6.0-28.0,go_nogo_deval,459,,<div class = centerbox><div class = fixation>+</div></div>,none,500,test,,,,,,,,,,,,295,32,850,0,stim,poldrack-single-stim,89,197808,0.0-6.0-29.0,go_nogo_deval,459,,<img class = center src='/static/experiments/go_nogo_deval/images/blue_triangle.png'></img>,32,850,test,blue_triangle,go2,32,9,0,,,,,,,-1,-1,1400,0,ITI,poldrack-single-stim,90,199210,0.0-6.0-30.0,go_nogo_deval,459,,<div></div>,32,1400,test,,,,,,,,,,,,-1,-1,500,0,fixation,poldrack-single-stim,91,199711,0.0-6.0-31.0,go_nogo_deval,459,,<div class = centerbox><div class = fixation>+</div></div>,none,500,test,,,,,,,,,,,,-1,-1,850,0,stim,poldrack-single-stim,92,200562,0.0-6.0-32.0,go_nogo_deval,459,,<img class = center src='/static/experiments/go_nogo_deval/images/purple_pentagon.png'></img>,32,850,test,purple_pentagon,nogo2,-1,10,0,,,,,,,-1,-1,1400,0,ITI,poldrack-single-stim,93,201964,0.0-6.0-33.0,go_nogo_deval,459,,<div></div>,32,1400,test,,,,,,,,,,,,-1,-1,500,0,fixation,poldrack-single-stim,94,202466,0.0-6.0-34.0,go_nogo_deval,459,,<div class = centerbox><div class = fixation>+</div></div>,none,500,test,,,,,,,,,,,,-1,-1,850,0,stim,poldrack-single-stim,95,203318,0.0-6.0-35.0,go_nogo_deval,459,,<img class = center src='/static/experiments/go_nogo_deval/images/purple_pentagon.png'></img>,32,850,test,purple_pentagon,nogo2,-1,11,0,,,,,,,-1,-1,1400,0,ITI,poldrack-single-stim,96,204718,0.0-6.0-36.0,go_nogo_deval,459,,<div></div>,32,1400,test,,,,,,,,,,,,-1,-1,500,0,fixation,poldrack-single-stim,97,205220,0.0-6.0-37.0,go_nogo_deval,459,,<div class = centerbox><div class = fixation>+</div></div>,none,500,test,,,,,,,,,,,,-1,-1,850,0,stim,poldrack-single-stim,98,206073,0.0-6.0-38.0,go_nogo_deval,459,,<img class = center src='/static/experiments/go_nogo_deval/images/green_rhombus.png'></img>,32,850,test,green_rhombus,nogo1,-1,12,0,,,,,,,-1,-1,1400,0,ITI,poldrack-single-stim,99,207475,0.0-6.0-39.0,go_nogo_deval,459,,<div></div>,32,1400,test,,,,,,,,,,,,-1,-1,500,0,fixation,poldrack-single-stim,100,207977,0.0-6.0-40.0,go_nogo_deval,459,,<div class = centerbox><div class = fixation>+</div></div>,none,500,test,,,,,,,,,,,,345,32,850,0,stim,poldrack-single-stim,101,208828,0.0-6.0-41.0,go_nogo_deval,459,,<img class = center src='/static/experiments/go_nogo_deval/images/red_circle.png'></img>,32,850,test,red_circle,go1,32,13,0,,,,,,,-1,-1,1400,0,ITI,poldrack-single-stim,102,210230,0.0-6.0-42.0,go_nogo_deval,459,,<div></div>,32,1400,test,,,,,,,,,,,,-1,-1,500,0,fixation,poldrack-single-stim,103,210731,0.0-6.0-43.0,go_nogo_deval,459,,<div class = centerbox><div class = fixation>+</div></div>,none,500,test,,,,,,,,,,,,-1,-1,850,0,stim,poldrack-single-stim,104,211583,0.0-6.0-44.0,go_nogo_deval,459,,<img class = center src='/static/experiments/go_nogo_deval/images/green_rhombus.png'></img>,32,850,test,green_rhombus,nogo1,-1,14,0,,,,,,,-1,-1,1400,0,ITI,poldrack-single-stim,105,212984,0.0-6.0-45.0,go_nogo_deval,459,,<div></div>,32,1400,test,,,,,,,,,,,,-1,-1,500,0,fixation,poldrack-single-stim,106,213486,0.0-6.0-46.0,go_nogo_deval,459,,<div class = centerbox><div class = fixation>+</div></div>,none,500,test,,,,,,,,,,,,381,32,850,0,stim,poldrack-single-stim,107,214337,0.0-6.0-47.0,go_nogo_deval,459,,<img class = center src='/static/experiments/go_nogo_deval/images/red_circle.png'></img>,32,850,test,red_circle,go1,32,15,0,,,,,,,-1,-1,1400,0,ITI,poldrack-single-stim,108,215740,0.0-6.0-48.0,go_nogo_deval,459,,<div></div>,32,1400,test,,,,,,,,,,,,-1,-1,500,0,fixation,poldrack-single-stim,109,216241,0.0-6.0-49.0,go_nogo_deval,459,,<div class = centerbox><div class = fixation>+</div></div>,none,500,test,,,,,,,,,,,,372,32,850,0,stim,poldrack-single-stim,110,217093,0.0-6.0-50.0,go_nogo_deval,459,,<img class = center src='/static/experiments/go_nogo_deval/images/red_circle.png'></img>,32,850,test,red_circle,go1,32,16,0,,,,,,,-1,-1,1400,0,ITI,poldrack-single-stim,111,218495,0.0-6.0-51.0,go_nogo_deval,459,,<div></div>,32,1400,test,,,,,,,,,,,,-1,-1,500,0,fixation,poldrack-single-stim,112,218995,0.0-6.0-52.0,go_nogo_deval,459,,<div class = centerbox><div class = fixation>+</div></div>,none,500,test,,,,,,,,,,,,-1,-1,850,0,stim,poldrack-single-stim,113,219847,0.0-6.0-53.0,go_nogo_deval,459,,<img class = center src='/static/experiments/go_nogo_deval/images/purple_pentagon.png'></img>,32,850,test,purple_pentagon,nogo2,-1,17,0,,,,,,,-1,-1,1400,0,ITI,poldrack-single-stim,114,221248,0.0-6.0-54.0,go_nogo_deval,459,,<div></div>,32,1400,test,,,,,,,,,,,,-1,-1,500,0,fixation,poldrack-single-stim,115,221750,0.0-6.0-55.0,go_nogo_deval,459,,<div class = centerbox><div class = fixation>+</div></div>,none,500,test,,,,,,,,,,,,342,32,850,0,stim,poldrack-single-stim,116,222601,0.0-6.0-56.0,go_nogo_deval,459,,<img class = center src='/static/experiments/go_nogo_deval/images/blue_triangle.png'></img>,32,850,test,blue_triangle,go2,32,18,0,,,,,,,-1,-1,1400,0,ITI,poldrack-single-stim,117,224003,0.0-6.0-57.0,go_nogo_deval,459,,<div></div>,32,1400,test,,,,,,,,,,,,-1,-1,500,0,fixation,poldrack-single-stim,118,224505,0.0-6.0-58.0,go_nogo_deval,459,,<div class = centerbox><div class = fixation>+</div></div>,none,500,test,,,,,,,,,,,,332,32,850,0,stim,poldrack-single-stim,119,225357,0.0-6.0-59.0,go_nogo_deval,459,,<img class = center src='/static/experiments/go_nogo_deval/images/blue_triangle.png'></img>,32,850,test,blue_triangle,go2,32,19,0,,,,,,,-1,-1,1400,0,ITI,poldrack-single-stim,120,226759,0.0-6.0-60.0,go_nogo_deval,459,,<div></div>,32,1400,test,,,,,,,,,,,,-1,-1,500,0,fixation,poldrack-single-stim,121,227260,0.0-6.0-61.0,go_nogo_deval,459,,<div class = centerbox><div class = fixation>+</div></div>,none,500,test,,,,,,,,,,,,-1,-1,850,0,stim,poldrack-single-stim,122,228112,0.0-6.0-62.0,go_nogo_deval,459,,<img class = center src='/static/experiments/go_nogo_deval/images/green_rhombus.png'></img>,32,850,test,green_rhombus,nogo1,-1,20,0,,,,,,,-1,-1,1400,0,ITI,poldrack-single-stim,123,229512,0.0-6.0-63.0,go_nogo_deval,459,,<div></div>,32,1400,test,,,,,,,,,,,,-1,-1,500,0,fixation,poldrack-single-stim,124,230014,0.0-6.0-64.0,go_nogo_deval,459,,<div class = centerbox><div class = fixation>+</div></div>,none,500,test,,,,,,,,,,,,424,32,850,0,stim,poldrack-single-stim,125,230866,0.0-6.0-65.0,go_nogo_deval,459,,<img class = center src='/static/experiments/go_nogo_deval/images/red_circle.png'></img>,32,850,test,red_circle,go1,32,21,0,,,,,,,-1,-1,1400,0,ITI,poldrack-single-stim,126,232268,0.0-6.0-66.0,go_nogo_deval,459,,<div></div>,32,1400,test,,,,,,,,,,,,-1,-1,500,0,fixation,poldrack-single-stim,127,232770,0.0-6.0-67.0,go_nogo_deval,459,,<div class = centerbox><div class = fixation>+</div></div>,none,500,test,,,,,,,,,,,,314,32,850,0,stim,poldrack-single-stim,128,233621,0.0-6.0-68.0,go_nogo_deval,459,,<img class = center src='/static/experiments/go_nogo_deval/images/blue_triangle.png'></img>,32,850,test,blue_triangle,go2,32,22,0,,,,,,,-1,-1,1400,0,ITI,poldrack-single-stim,129,235023,0.0-6.0-69.0,go_nogo_deval,459,,<div></div>,32,1400,test,,,,,,,,,,,,-1,-1,500,0,fixation,poldrack-single-stim,130,235524,0.0-6.0-70.0,go_nogo_deval,459,,<div class = centerbox><div class = fixation>+</div></div>,none,500,test,,,,,,,,,,,,-1,-1,850,0,stim,poldrack-single-stim,131,236376,0.0-6.0-71.0,go_nogo_deval,459,,<img class = center src='/static/experiments/go_nogo_deval/images/green_rhombus.png'></img>,32,850,test,green_rhombus,nogo1,-1,23,0,,,,,,,-1,-1,1400,0,ITI,poldrack-single-stim,132,237779,0.0-6.0-72.0,go_nogo_deval,459,,<div></div>,32,1400,test,,,,,,,,,,,,-1,-1,500,0,fixation,poldrack-single-stim,133,238281,0.0-6.0-73.0,go_nogo_deval,459,,<div class = centerbox><div class = fixation>+</div></div>,none,500,test,,,,,,,,,,,,349,32,850,0,stim,poldrack-single-stim,134,239132,0.0-6.0-74.0,go_nogo_deval,459,,<img class = center src='/static/experiments/go_nogo_deval/images/red_circle.png'></img>,32,850,test,red_circle,go1,32,24,0,,,,,,,-1,-1,1400,0,ITI,poldrack-single-stim,135,240534,0.0-6.0-75.0,go_nogo_deval,459,,<div></div>,32,1400,test,,,,,,,,,,,,-1,-1,500,0,fixation,poldrack-single-stim,136,241036,0.0-6.0-76.0,go_nogo_deval,459,,<div class = centerbox><div class = fixation>+</div></div>,none,500,test,,,,,,,,,,,,-1,-1,850,0,stim,poldrack-single-stim,137,241888,0.0-6.0-77.0,go_nogo_deval,459,,<img class = center src='/static/experiments/go_nogo_deval/images/green_rhombus.png'></img>,32,850,test,green_rhombus,nogo1,-1,25,0,,,,,,,-1,-1,1400,0,ITI,poldrack-single-stim,138,243290,0.0-6.0-78.0,go_nogo_deval,459,,<div></div>,32,1400,test,,,,,,,,,,,,-1,-1,500,0,fixation,poldrack-single-stim,139,243791,0.0-6.0-79.0,go_nogo_deval,459,,<div class = centerbox><div class = fixation>+</div></div>,none,500,test,,,,,,,,,,,,329,32,850,0,stim,poldrack-single-stim,140,244642,0.0-6.0-80.0,go_nogo_deval,459,,<img class = center src='/static/experiments/go_nogo_deval/images/blue_triangle.png'></img>,32,850,test,blue_triangle,go2,32,26,0,,,,,,,-1,-1,1400,0,ITI,poldrack-single-stim,141,246044,0.0-6.0-81.0,go_nogo_deval,459,,<div></div>,32,1400,test,,,,,,,,,,,,-1,-1,500,0,fixation,poldrack-single-stim,142,246546,0.0-6.0-82.0,go_nogo_deval,459,,<div class = centerbox><div class = fixation>+</div></div>,none,500,test,,,,,,,,,,,,364,32,850,0,stim,poldrack-single-stim,143,247398,0.0-6.0-83.0,go_nogo_deval,459,,<img class = center src='/static/experiments/go_nogo_deval/images/red_circle.png'></img>,32,850,test,red_circle,go1,32,27,0,,,,,,,-1,-1,1400,0,ITI,poldrack-single-stim,144,248799,0.0-6.0-84.0,go_nogo_deval,459,,<div></div>,32,1400,test,,,,,,,,,,,,-1,-1,500,0,fixation,poldrack-single-stim,145,249301,0.0-6.0-85.0,go_nogo_deval,459,,<div class = centerbox><div class = fixation>+</div></div>,none,500,test,,,,,,,,,,,,-1,-1,850,0,stim,poldrack-single-stim,146,250152,0.0-6.0-86.0,go_nogo_deval,459,,<img class = center src='/static/experiments/go_nogo_deval/images/purple_pentagon.png'></img>,32,850,test,purple_pentagon,nogo2,-1,28,0,,,,,,,-1,-1,1400,0,ITI,poldrack-single-stim,147,251554,0.0-6.0-87.0,go_nogo_deval,459,,<div></div>,32,1400,test,,,,,,,,,,,,-1,-1,500,0,fixation,poldrack-single-stim,148,252055,0.0-6.0-88.0,go_nogo_deval,459,,<div class = centerbox><div class = fixation>+</div></div>,none,500,test,,,,,,,,,,,,-1,-1,850,0,stim,poldrack-single-stim,149,252907,0.0-6.0-89.0,go_nogo_deval,459,,<img class = center src='/static/experiments/go_nogo_deval/images/purple_pentagon.png'></img>,32,850,test,purple_pentagon,nogo2,-1,29,0,,,,,,,-1,-1,1400,0,ITI,poldrack-single-stim,150,254308,0.0-6.0-90.0,go_nogo_deval,459,,<div></div>,32,1400,test,,,,,,,,,,,,-1,-1,500,0,fixation,poldrack-single-stim,151,254810,0.0-6.0-91.0,go_nogo_deval,459,,<div class = centerbox><div class = fixation>+</div></div>,none,500,test,,,,,,,,,,,,-1,-1,850,0,stim,poldrack-single-stim,152,255661,0.0-6.0-92.0,go_nogo_deval,459,,<img class = center src='/static/experiments/go_nogo_deval/images/purple_pentagon.png'></img>,32,850,test,purple_pentagon,nogo2,-1,30,0,,,,,,,-1,-1,1400,0,ITI,poldrack-single-stim,153,257063,0.0-6.0-93.0,go_nogo_deval,459,,<div></div>,32,1400,test,,,,,,,,,,,,-1,-1,500,0,fixation,poldrack-single-stim,154,257565,0.0-6.0-94.0,go_nogo_deval,459,,<div class = centerbox><div class = fixation>+</div></div>,none,500,test,,,,,,,,,,,,404,32,850,0,stim,poldrack-single-stim,155,258417,0.0-6.0-95.0,go_nogo_deval,459,,<img class = center src='/static/experiments/go_nogo_deval/images/red_circle.png'></img>,32,850,test,red_circle,go1,32,31,0,,,,,,,-1,-1,1400,0,ITI,poldrack-single-stim,156,259819,0.0-6.0-96.0,go_nogo_deval,459,,<div></div>,32,1400,test,,,,,,,,,,,,-1,-1,500,0,fixation,poldrack-single-stim,157,260321,0.0-6.0-97.0,go_nogo_deval,459,,<div class = centerbox><div class = fixation>+</div></div>,none,500,test,,,,,,,,,,,,359,32,850,0,stim,poldrack-single-stim,158,261172,0.0-6.0-98.0,go_nogo_deval,459,,<img class = center src='/static/experiments/go_nogo_deval/images/blue_triangle.png'></img>,32,850,test,blue_triangle,go2,32,32,0,,,,,,,-1,-1,1400,0,ITI,poldrack-single-stim,159,262574,0.0-6.0-99.0,go_nogo_deval,459,,<div></div>,32,1400,test,,,,,,,,,,,,-1,-1,500,0,fixation,poldrack-single-stim,160,263076,0.0-6.0-100.0,go_nogo_deval,459,,<div class = centerbox><div class = fixation>+</div></div>,none,500,test,,,,,,,,,,,,405,32,850,0,stim,poldrack-single-stim,161,263927,0.0-6.0-101.0,go_nogo_deval,459,,<img class = center src='/static/experiments/go_nogo_deval/images/blue_triangle.png'></img>,32,850,test,blue_triangle,go2,32,33,0,,,,,,,-1,-1,1400,0,ITI,poldrack-single-stim,162,265329,0.0-6.0-102.0,go_nogo_deval,459,,<div></div>,32,1400,test,,,,,,,,,,,,-1,-1,500,0,fixation,poldrack-single-stim,163,265831,0.0-6.0-103.0,go_nogo_deval,459,,<div class = centerbox><div class = fixation>+</div></div>,none,500,test,,,,,,,,,,,,395,32,850,0,stim,poldrack-single-stim,164,266683,0.0-6.0-104.0,go_nogo_deval,459,,<img class = center src='/static/experiments/go_nogo_deval/images/red_circle.png'></img>,32,850,test,red_circle,go1,32,34,0,,,,,,,-1,-1,1400,0,ITI,poldrack-single-stim,165,268085,0.0-6.0-105.0,go_nogo_deval,459,,<div></div>,32,1400,test,,,,,,,,,,,,-1,-1,500,0,fixation,poldrack-single-stim,166,268586,0.0-6.0-106.0,go_nogo_deval,459,,<div class = centerbox><div class = fixation>+</div></div>,none,500,test,,,,,,,,,,,,373,32,850,0,stim,poldrack-single-stim,167,269438,0.0-6.0-107.0,go_nogo_deval,459,,<img class = center src='/static/experiments/go_nogo_deval/images/red_circle.png'></img>,32,850,test,red_circle,go1,32,35,0,,,,,,,-1,-1,1400,0,ITI,poldrack-single-stim,168,270840,0.0-6.0-108.0,go_nogo_deval,459,,<div></div>,32,1400,test,,,,,,,,,,,,-1,-1,500,0,fixation,poldrack-single-stim,169,271342,0.0-6.0-109.0,go_nogo_deval,459,,<div class = centerbox><div class = fixation>+</div></div>,none,500,test,,,,,,,,,,,,362,32,850,0,stim,poldrack-single-stim,170,272194,0.0-6.0-110.0,go_nogo_deval,459,,<img class = center src='/static/experiments/go_nogo_deval/images/blue_triangle.png'></img>,32,850,test,blue_triangle,go2,32,36,0,,,,,,,-1,-1,1400,0,ITI,poldrack-single-stim,171,273596,0.0-6.0-111.0,go_nogo_deval,459,,<div></div>,32,1400,test,,,,,,,,,,,,-1,-1,500,0,fixation,poldrack-single-stim,172,274098,0.0-6.0-112.0,go_nogo_deval,459,,<div class = centerbox><div class = fixation>+</div></div>,none,500,test,,,,,,,,,,,,318,32,850,0,stim,poldrack-single-stim,173,274950,0.0-6.0-113.0,go_nogo_deval,459,,<img class = center src='/static/experiments/go_nogo_deval/images/red_circle.png'></img>,32,850,test,red_circle,go1,32,37,0,,,,,,,-1,-1,1400,0,ITI,poldrack-single-stim,174,276351,0.0-6.0-114.0,go_nogo_deval,459,,<div></div>,32,1400,test,,,,,,,,,,,,-1,-1,500,0,fixation,poldrack-single-stim,175,276853,0.0-6.0-115.0,go_nogo_deval,459,,<div class = centerbox><div class = fixation>+</div></div>,none,500,test,,,,,,,,,,,,331,32,850,0,stim,poldrack-single-stim,176,277705,0.0-6.0-116.0,go_nogo_deval,459,,<img class = center src='/static/experiments/go_nogo_deval/images/red_circle.png'></img>,32,850,test,red_circle,go1,32,38,0,,,,,,,-1,-1,1400,0,ITI,poldrack-single-stim,177,279107,0.0-6.0-117.0,go_nogo_deval,459,,<div></div>,32,1400,test,,,,,,,,,,,,-1,-1,500,0,fixation,poldrack-single-stim,178,279609,0.0-6.0-118.0,go_nogo_deval,459,,<div class = centerbox><div class = fixation>+</div></div>,none,500,test,,,,,,,,,,,,320,32,850,0,stim,poldrack-single-stim,179,280461,0.0-6.0-119.0,go_nogo_deval,459,,<img class = center src='/static/experiments/go_nogo_deval/images/blue_triangle.png'></img>,32,850,test,blue_triangle,go2,32,39,0,,,,,,,-1,-1,1400,0,ITI,poldrack-single-stim,180,281862,0.0-6.0-120.0,go_nogo_deval,459,,<div></div>,32,1400,test,,,,,,,,,,,,-1,-1,500,0,fixation,poldrack-single-stim,181,282364,0.0-6.0-121.0,go_nogo_deval,459,,<div class = centerbox><div class = fixation>+</div></div>,none,500,test,,,,,,,,,,,,309,32,850,0,stim,poldrack-single-stim,182,283216,0.0-6.0-122.0,go_nogo_deval,459,,<img class = center src='/static/experiments/go_nogo_deval/images/blue_triangle.png'></img>,32,850,test,blue_triangle,go2,32,40,0,,,,,,,-1,-1,1400,0,ITI,poldrack-single-stim,183,284618,0.0-6.0-123.0,go_nogo_deval,459,,<div></div>,32,1400,test,,,,,,,,,,,,-1,-1,500,0,fixation,poldrack-single-stim,184,285119,0.0-6.0-124.0,go_nogo_deval,459,,<div class = centerbox><div class = fixation>+</div></div>,none,500,test,,,,,,,,,,,,-1,-1,850,0,stim,poldrack-single-stim,185,285971,0.0-6.0-125.0,go_nogo_deval,459,,<img class = center src='/static/experiments/go_nogo_deval/images/green_rhombus.png'></img>,32,850,test,green_rhombus,nogo1,-1,41,0,,,,,,,-1,-1,1400,0,ITI,poldrack-single-stim,186,287372,0.0-6.0-126.0,go_nogo_deval,459,,<div></div>,32,1400,test,,,,,,,,,,,,-1,-1,500,0,fixation,poldrack-single-stim,187,287874,0.0-6.0-127.0,go_nogo_deval,459,,<div class = centerbox><div class = fixation>+</div></div>,none,500,test,,,,,,,,,,,,301,32,850,0,stim,poldrack-single-stim,188,288725,0.0-6.0-128.0,go_nogo_deval,459,,<img class = center src='/static/experiments/go_nogo_deval/images/blue_triangle.png'></img>,32,850,test,blue_triangle,go2,32,42,0,,,,,,,-1,-1,1400,0,ITI,poldrack-single-stim,189,290127,0.0-6.0-129.0,go_nogo_deval,459,,<div></div>,32,1400,test,,,,,,,,,,,,-1,-1,500,0,fixation,poldrack-single-stim,190,290629,0.0-6.0-130.0,go_nogo_deval,459,,<div class = centerbox><div class = fixation>+</div></div>,none,500,test,,,,,,,,,,,,-1,-1,850,0,stim,poldrack-single-stim,191,291481,0.0-6.0-131.0,go_nogo_deval,459,,<img class = center src='/static/experiments/go_nogo_deval/images/purple_pentagon.png'></img>,32,850,test,purple_pentagon,nogo2,-1,43,0,,,,,,,-1,-1,1400,0,ITI,poldrack-single-stim,192,292883,0.0-6.0-132.0,go_nogo_deval,459,,<div></div>,32,1400,test,,,,,,,,,,,,-1,-1,500,0,fixation,poldrack-single-stim,193,293384,0.0-6.0-133.0,go_nogo_deval,459,,<div class = centerbox><div class = fixation>+</div></div>,none,500,test,,,,,,,,,,,,-1,-1,850,0,stim,poldrack-single-stim,194,294236,0.0-6.0-134.0,go_nogo_deval,459,,<img class = center src='/static/experiments/go_nogo_deval/images/green_rhombus.png'></img>,32,850,test,green_rhombus,nogo1,-1,44,0,,,,,,,-1,-1,1400,0,ITI,poldrack-single-stim,195,295638,0.0-6.0-135.0,go_nogo_deval,459,,<div></div>,32,1400,test,,,,,,,,,,,,-1,-1,500,0,fixation,poldrack-single-stim,196,296140,0.0-6.0-136.0,go_nogo_deval,459,,<div class = centerbox><div class = fixation>+</div></div>,none,500,test,,,,,,,,,,,,316,32,850,0,stim,poldrack-single-stim,197,296991,0.0-6.0-137.0,go_nogo_deval,459,,<img class = center src='/static/experiments/go_nogo_deval/images/blue_triangle.png'></img>,32,850,test,blue_triangle,go2,32,45,0,,,,,,,-1,-1,1400,0,ITI,poldrack-single-stim,198,298392,0.0-6.0-138.0,go_nogo_deval,459,,<div></div>,32,1400,test,,,,,,,,,,,,-1,-1,500,0,fixation,poldrack-single-stim,199,298893,0.0-6.0-139.0,go_nogo_deval,459,,<div class = centerbox><div class = fixation>+</div></div>,none,500,test,,,,,,,,,,,,-1,-1,850,0,stim,poldrack-single-stim,200,299745,0.0-6.0-140.0,go_nogo_deval,459,,<img class = center src='/static/experiments/go_nogo_deval/images/purple_pentagon.png'></img>,32,850,test,purple_pentagon,nogo2,-1,46,0,,,,,,,-1,-1,1400,0,ITI,poldrack-single-stim,201,301147,0.0-6.0-141.0,go_nogo_deval,459,,<div></div>,32,1400,test,,,,,,,,,,,,-1,-1,500,0,fixation,poldrack-single-stim,202,301649,0.0-6.0-142.0,go_nogo_deval,459,,<div class = centerbox><div class = fixation>+</div></div>,none,500,test,,,,,,,,,,,,308,32,850,0,stim,poldrack-single-stim,203,302500,0.0-6.0-143.0,go_nogo_deval,459,,<img class = center src='/static/experiments/go_nogo_deval/images/red_circle.png'></img>,32,850,test,red_circle,go1,32,47,0,,,,,,,-1,-1,1400,0,ITI,poldrack-single-stim,204,303901,0.0-6.0-144.0,go_nogo_deval,459,,<div></div>,32,1400,test,,,,,,,,,,,,10551,13,10551,0,practice-no-stop-feedback,poldrack-single-stim,205,314456,0.0-6.1-0.1,go_nogo_deval,459,,<div class = centerbox><p class = block-text><br>Please take this time to read your feedback and to take a short break! Press enter to continue</p><p class = block-text><strong>Average reaction time:  346 ms. Accuracy: 100%</strong></p></div>,13,10551,,,,,,,,,,,,,-1,-1,500,0,fixation,poldrack-single-stim,206,314958,0.0-6.1-1.1,go_nogo_deval,459,,<div class = centerbox><div class = fixation>+</div></div>,none,500,test,,,,,,,,,,,,-1,-1,850,0,stim,poldrack-single-stim,207,315810,0.0-6.1-2.1,go_nogo_deval,459,,<img class = center src='/static/experiments/go_nogo_deval/images/purple_pentagon.png'></img>,32,850,test,purple_pentagon,nogo2,-1,0,1,,,,,,,-1,-1,1400,0,ITI,poldrack-single-stim,208,317211,0.0-6.1-3.1,go_nogo_deval,459,,<div></div>,32,1400,test,,,,,,,,,,,,-1,-1,500,0,fixation,poldrack-single-stim,209,317713,0.0-6.1-4.1,go_nogo_deval,459,,<div class = centerbox><div class = fixation>+</div></div>,none,500,test,,,,,,,,,,,,376,32,850,0,stim,poldrack-single-stim,210,318564,0.0-6.1-5.1,go_nogo_deval,459,,<img class = center src='/static/experiments/go_nogo_deval/images/blue_triangle.png'></img>,32,850,test,blue_triangle,go2,32,1,1,,,,,,,-1,-1,1400,0,ITI,poldrack-single-stim,211,319966,0.0-6.1-6.1,go_nogo_deval,459,,<div></div>,32,1400,test,,,,,,,,,,,,-1,-1,500,0,fixation,poldrack-single-stim,212,320467,0.0-6.1-7.1,go_nogo_deval,459,,<div class = centerbox><div class = fixation>+</div></div>,none,500,test,,,,,,,,,,,,345,32,850,0,stim,poldrack-single-stim,213,321318,0.0-6.1-8.1,go_nogo_deval,459,,<img class = center src='/static/experiments/go_nogo_deval/images/red_circle.png'></img>,32,850,test,red_circle,go1,32,2,1,,,,,,,-1,-1,1400,0,ITI,poldrack-single-stim,214,322720,0.0-6.1-9.1,go_nogo_deval,459,,<div></div>,32,1400,test,,,,,,,,,,,,-1,-1,500,0,fixation,poldrack-single-stim,215,323222,0.0-6.1-10.1,go_nogo_deval,459,,<div class = centerbox><div class = fixation>+</div></div>,none,500,test,,,,,,,,,,,,-1,-1,850,0,stim,poldrack-single-stim,216,324074,0.0-6.1-11.1,go_nogo_deval,459,,<img class = center src='/static/experiments/go_nogo_deval/images/green_rhombus.png'></img>,32,850,test,green_rhombus,nogo1,-1,3,1,,,,,,,-1,-1,1400,0,ITI,poldrack-single-stim,217,325474,0.0-6.1-12.1,go_nogo_deval,459,,<div></div>,32,1400,test,,,,,,,,,,,,-1,-1,500,0,fixation,poldrack-single-stim,218,325976,0.0-6.1-13.1,go_nogo_deval,459,,<div class = centerbox><div class = fixation>+</div></div>,none,500,test,,,,,,,,,,,,280,32,850,0,stim,poldrack-single-stim,219,326828,0.0-6.1-14.1,go_nogo_deval,459,,<img class = center src='/static/experiments/go_nogo_deval/images/blue_triangle.png'></img>,32,850,test,blue_triangle,go2,32,4,1,,,,,,,-1,-1,1400,0,ITI,poldrack-single-stim,220,328230,0.0-6.1-15.1,go_nogo_deval,459,,<div></div>,32,1400,test,,,,,,,,,,,,-1,-1,500,0,fixation,poldrack-single-stim,221,328731,0.0-6.1-16.1,go_nogo_deval,459,,<div class = centerbox><div class = fixation>+</div></div>,none,500,test,,,,,,,,,,,,-1,-1,850,0,stim,poldrack-single-stim,222,329583,0.0-6.1-17.1,go_nogo_deval,459,,<img class = center src='/static/experiments/go_nogo_deval/images/purple_pentagon.png'></img>,32,850,test,purple_pentagon,nogo2,-1,5,1,,,,,,,-1,-1,1400,0,ITI,poldrack-single-stim,223,330985,0.0-6.1-18.1,go_nogo_deval,459,,<div></div>,32,1400,test,,,,,,,,,,,,-1,-1,500,0,fixation,poldrack-single-stim,224,331487,0.0-6.1-19.1,go_nogo_deval,459,,<div class = centerbox><div class = fixation>+</div></div>,none,500,test,,,,,,,,,,,,260,32,850,0,stim,poldrack-single-stim,225,332338,0.0-6.1-20.1,go_nogo_deval,459,,<img class = center src='/static/experiments/go_nogo_deval/images/red_circle.png'></img>,32,850,test,red_circle,go1,32,6,1,,,,,,,-1,-1,1400,0,ITI,poldrack-single-stim,226,333740,0.0-6.1-21.1,go_nogo_deval,459,,<div></div>,32,1400,test,,,,,,,,,,,,-1,-1,500,0,fixation,poldrack-single-stim,227,334242,0.0-6.1-22.1,go_nogo_deval,459,,<div class = centerbox><div class = fixation>+</div></div>,none,500,test,,,,,,,,,,,,-1,-1,850,0,stim,poldrack-single-stim,228,335093,0.0-6.1-23.1,go_nogo_deval,459,,<img class = center src='/static/experiments/go_nogo_deval/images/green_rhombus.png'></img>,32,850,test,green_rhombus,nogo1,-1,7,1,,,,,,,-1,-1,1400,0,ITI,poldrack-single-stim,229,336494,0.0-6.1-24.1,go_nogo_deval,459,,<div></div>,32,1400,test,,,,,,,,,,,,-1,-1,500,0,fixation,poldrack-single-stim,230,336996,0.0-6.1-25.1,go_nogo_deval,459,,<div class = centerbox><div class = fixation>+</div></div>,none,500,test,,,,,,,,,,,,253,32,850,0,stim,poldrack-single-stim,231,337848,0.0-6.1-26.1,go_nogo_deval,459,,<img class = center src='/static/experiments/go_nogo_deval/images/purple_pentagon.png'></img>,32,850,test,purple_pentagon,nogo2,-1,8,1,,,,,,,-1,-1,1400,0,ITI,poldrack-single-stim,232,339249,0.0-6.1-27.1,go_nogo_deval,459,,<div></div>,32,1400,test,,,,,,,,,,,,-1,-1,500,0,fixation,poldrack-single-stim,233,339751,0.0-6.1-28.1,go_nogo_deval,459,,<div class = centerbox><div class = fixation>+</div></div>,none,500,test,,,,,,,,,,,,253,32,850,0,stim,poldrack-single-stim,234,340602,0.0-6.1-29.1,go_nogo_deval,459,,<img class = center src='/static/experiments/go_nogo_deval/images/red_circle.png'></img>,32,850,test,red_circle,go1,32,9,1,,,,,,,-1,-1,1400,0,ITI,poldrack-single-stim,235,342003,0.0-6.1-30.1,go_nogo_deval,459,,<div></div>,32,1400,test,,,,,,,,,,,,-1,-1,500,0,fixation,poldrack-single-stim,236,342505,0.0-6.1-31.1,go_nogo_deval,459,,<div class = centerbox><div class = fixation>+</div></div>,none,500,test,,,,,,,,,,,,447,32,850,0,stim,poldrack-single-stim,237,343357,0.0-6.1-32.1,go_nogo_deval,459,,<img class = center src='/static/experiments/go_nogo_deval/images/red_circle.png'></img>,32,850,test,red_circle,go1,32,10,1,,,,,,,-1,-1,1400,0,ITI,poldrack-single-stim,238,344758,0.0-6.1-33.1,go_nogo_deval,459,,<div></div>,32,1400,test,,,,,,,,,,,,-1,-1,500,0,fixation,poldrack-single-stim,239,345260,0.0-6.1-34.1,go_nogo_deval,459,,<div class = centerbox><div class = fixation>+</div></div>,none,500,test,,,,,,,,,,,,-1,-1,850,0,stim,poldrack-single-stim,240,346110,0.0-6.1-35.1,go_nogo_deval,459,,<img class = center src='/static/experiments/go_nogo_deval/images/purple_pentagon.png'></img>,32,850,test,purple_pentagon,nogo2,-1,11,1,,,,,,,-1,-1,1400,0,ITI,poldrack-single-stim,241,347511,0.0-6.1-36.1,go_nogo_deval,459,,<div></div>,32,1400,test,,,,,,,,,,,,-1,-1,500,0,fixation,poldrack-single-stim,242,348013,0.0-6.1-37.1,go_nogo_deval,459,,<div class = centerbox><div class = fixation>+</div></div>,none,500,test,,,,,,,,,,,,-1,-1,850,0,stim,poldrack-single-stim,243,348865,0.0-6.1-38.1,go_nogo_deval,459,,<img class = center src='/static/experiments/go_nogo_deval/images/green_rhombus.png'></img>,32,850,test,green_rhombus,nogo1,-1,12,1,,,,,,,-1,-1,1400,0,ITI,poldrack-single-stim,244,350266,0.0-6.1-39.1,go_nogo_deval,459,,<div></div>,32,1400,test,,,,,,,,,,,,-1,-1,500,0,fixation,poldrack-single-stim,245,350769,0.0-6.1-40.1,go_nogo_deval,459,,<div class = centerbox><div class = fixation>+</div></div>,none,500,test,,,,,,,,,,,,-1,-1,850,0,stim,poldrack-single-stim,246,351621,0.0-6.1-41.1,go_nogo_deval,459,,<img class = center src='/static/experiments/go_nogo_deval/images/green_rhombus.png'></img>,32,850,test,green_rhombus,nogo1,-1,13,1,,,,,,,-1,-1,1400,0,ITI,poldrack-single-stim,247,353023,0.0-6.1-42.1,go_nogo_deval,459,,<div></div>,32,1400,test,,,,,,,,,,,,-1,-1,500,0,fixation,poldrack-single-stim,248,353523,0.0-6.1-43.1,go_nogo_deval,459,,<div class = centerbox><div class = fixation>+</div></div>,none,500,test,,,,,,,,,,,,307,32,850,0,stim,poldrack-single-stim,249,354375,0.0-6.1-44.1,go_nogo_deval,459,,<img class = center src='/static/experiments/go_nogo_deval/images/blue_triangle.png'></img>,32,850,test,blue_triangle,go2,32,14,1,,,,,,,-1,-1,1400,0,ITI,poldrack-single-stim,250,355777,0.0-6.1-45.1,go_nogo_deval,459,,<div></div>,32,1400,test,,,,,,,,,,,,-1,-1,500,0,fixation,poldrack-single-stim,251,356279,0.0-6.1-46.1,go_nogo_deval,459,,<div class = centerbox><div class = fixation>+</div></div>,none,500,test,,,,,,,,,,,,-1,-1,850,0,stim,poldrack-single-stim,252,357131,0.0-6.1-47.1,go_nogo_deval,459,,<img class = center src='/static/experiments/go_nogo_deval/images/purple_pentagon.png'></img>,32,850,test,purple_pentagon,nogo2,-1,15,1,,,,,,,-1,-1,1400,0,ITI,poldrack-single-stim,253,358532,0.0-6.1-48.1,go_nogo_deval,459,,<div></div>,32,1400,test,,,,,,,,,,,,-1,-1,500,0,fixation,poldrack-single-stim,254,359033,0.0-6.1-49.1,go_nogo_deval,459,,<div class = centerbox><div class = fixation>+</div></div>,none,500,test,,,,,,,,,,,,287,32,850,0,stim,poldrack-single-stim,255,359885,0.0-6.1-50.1,go_nogo_deval,459,,<img class = center src='/static/experiments/go_nogo_deval/images/blue_triangle.png'></img>,32,850,test,blue_triangle,go2,32,16,1,,,,,,,-1,-1,1400,0,ITI,poldrack-single-stim,256,361287,0.0-6.1-51.1,go_nogo_deval,459,,<div></div>,32,1400,test,,,,,,,,,,,,-1,-1,500,0,fixation,poldrack-single-stim,257,361787,0.0-6.1-52.1,go_nogo_deval,459,,<div class = centerbox><div class = fixation>+</div></div>,none,500,test,,,,,,,,,,,,289,32,850,0,stim,poldrack-single-stim,258,362639,0.0-6.1-53.1,go_nogo_deval,459,,<img class = center src='/static/experiments/go_nogo_deval/images/red_circle.png'></img>,32,850,test,red_circle,go1,32,17,1,,,,,,,-1,-1,1400,0,ITI,poldrack-single-stim,259,364041,0.0-6.1-54.1,go_nogo_deval,459,,<div></div>,32,1400,test,,,,,,,,,,,,-1,-1,500,0,fixation,poldrack-single-stim,260,364543,0.0-6.1-55.1,go_nogo_deval,459,,<div class = centerbox><div class = fixation>+</div></div>,none,500,test,,,,,,,,,,,,-1,-1,850,0,stim,poldrack-single-stim,261,365394,0.0-6.1-56.1,go_nogo_deval,459,,<img class = center src='/static/experiments/go_nogo_deval/images/green_rhombus.png'></img>,32,850,test,green_rhombus,nogo1,-1,18,1,,,,,,,-1,-1,1400,0,ITI,poldrack-single-stim,262,366795,0.0-6.1-57.1,go_nogo_deval,459,,<div></div>,32,1400,test,,,,,,,,,,,,-1,-1,500,0,fixation,poldrack-single-stim,263,367298,0.0-6.1-58.1,go_nogo_deval,459,,<div class = centerbox><div class = fixation>+</div></div>,none,500,test,,,,,,,,,,,,303,32,850,0,stim,poldrack-single-stim,264,368149,0.0-6.1-59.1,go_nogo_deval,459,,<img class = center src='/static/experiments/go_nogo_deval/images/red_circle.png'></img>,32,850,test,red_circle,go1,32,19,1,,,,,,,-1,-1,1400,0,ITI,poldrack-single-stim,265,369550,0.0-6.1-60.1,go_nogo_deval,459,,<div></div>,32,1400,test,,,,,,,,,,,,-1,-1,500,0,fixation,poldrack-single-stim,266,370052,0.0-6.1-61.1,go_nogo_deval,459,,<div class = centerbox><div class = fixation>+</div></div>,none,500,test,,,,,,,,,,,,451,32,850,0,stim,poldrack-single-stim,267,370902,0.0-6.1-62.1,go_nogo_deval,459,,<img class = center src='/static/experiments/go_nogo_deval/images/red_circle.png'></img>,32,850,test,red_circle,go1,32,20,1,,,,,,,-1,-1,1400,0,ITI,poldrack-single-stim,268,372304,0.0-6.1-63.1,go_nogo_deval,459,,<div></div>,32,1400,test,,,,,,,,,,,,-1,-1,500,0,fixation,poldrack-single-stim,269,372806,0.0-6.1-64.1,go_nogo_deval,459,,<div class = centerbox><div class = fixation>+</div></div>,none,500,test,,,,,,,,,,,,285,32,850,0,stim,poldrack-single-stim,270,373658,0.0-6.1-65.1,go_nogo_deval,459,,<img class = center src='/static/experiments/go_nogo_deval/images/red_circle.png'></img>,32,850,test,red_circle,go1,32,21,1,,,,,,,-1,-1,1400,0,ITI,poldrack-single-stim,271,375059,0.0-6.1-66.1,go_nogo_deval,459,,<div></div>,32,1400,test,,,,,,,,,,,,-1,-1,500,0,fixation,poldrack-single-stim,272,375560,0.0-6.1-67.1,go_nogo_deval,459,,<div class = centerbox><div class = fixation>+</div></div>,none,500,test,,,,,,,,,,,,365,32,850,0,stim,poldrack-single-stim,273,376411,0.0-6.1-68.1,go_nogo_deval,459,,<img class = center src='/static/experiments/go_nogo_deval/images/green_rhombus.png'></img>,32,850,test,green_rhombus,nogo1,-1,22,1,,,,,,,-1,-1,1400,0,ITI,poldrack-single-stim,274,377813,0.0-6.1-69.1,go_nogo_deval,459,,<div></div>,32,1400,test,,,,,,,,,,,,-1,-1,500,0,fixation,poldrack-single-stim,275,378315,0.0-6.1-70.1,go_nogo_deval,459,,<div class = centerbox><div class = fixation>+</div></div>,none,500,test,,,,,,,,,,,,514,32,850,0,stim,poldrack-single-stim,276,379166,0.0-6.1-71.1,go_nogo_deval,459,,<img class = center src='/static/experiments/go_nogo_deval/images/green_rhombus.png'></img>,32,850,test,green_rhombus,nogo1,-1,23,1,,,,,,,-1,-1,1400,0,ITI,poldrack-single-stim,277,380567,0.0-6.1-72.1,go_nogo_deval,459,,<div></div>,32,1400,test,,,,,,,,,,,,-1,-1,500,0,fixation,poldrack-single-stim,278,381068,0.0-6.1-73.1,go_nogo_deval,459,,<div class = centerbox><div class = fixation>+</div></div>,none,500,test,,,,,,,,,,,,303,32,850,0,stim,poldrack-single-stim,279,381919,0.0-6.1-74.1,go_nogo_deval,459,,<img class = center src='/static/experiments/go_nogo_deval/images/blue_triangle.png'></img>,32,850,test,blue_triangle,go2,32,24,1,,,,,,,-1,-1,1400,0,ITI,poldrack-single-stim,280,383321,0.0-6.1-75.1,go_nogo_deval,459,,<div></div>,32,1400,test,,,,,,,,,,,,-1,-1,500,0,fixation,poldrack-single-stim,281,383823,0.0-6.1-76.1,go_nogo_deval,459,,<div class = centerbox><div class = fixation>+</div></div>,none,500,test,,,,,,,,,,,,451,32,850,0,stim,poldrack-single-stim,282,384675,0.0-6.1-77.1,go_nogo_deval,459,,<img class = center src='/static/experiments/go_nogo_deval/images/blue_triangle.png'></img>,32,850,test,blue_triangle,go2,32,25,1,,,,,,,-1,-1,1400,0,ITI,poldrack-single-stim,283,386076,0.0-6.1-78.1,go_nogo_deval,459,,<div></div>,32,1400,test,,,,,,,,,,,,-1,-1,500,0,fixation,poldrack-single-stim,284,386578,0.0-6.1-79.1,go_nogo_deval,459,,<div class = centerbox><div class = fixation>+</div></div>,none,500,test,,,,,,,,,,,,362,32,850,0,stim,poldrack-single-stim,285,387430,0.0-6.1-80.1,go_nogo_deval,459,,<img class = center src='/static/experiments/go_nogo_deval/images/blue_triangle.png'></img>,32,850,test,blue_triangle,go2,32,26,1,,,,,,,-1,-1,1400,0,ITI,poldrack-single-stim,286,388832,0.0-6.1-81.1,go_nogo_deval,459,,<div></div>,32,1400,test,,,,,,,,,,,,-1,-1,500,0,fixation,poldrack-single-stim,287,389333,0.0-6.1-82.1,go_nogo_deval,459,,<div class = centerbox><div class = fixation>+</div></div>,none,500,test,,,,,,,,,,,,-1,-1,850,0,stim,poldrack-single-stim,288,390185,0.0-6.1-83.1,go_nogo_deval,459,,<img class = center src='/static/experiments/go_nogo_deval/images/purple_pentagon.png'></img>,32,850,test,purple_pentagon,nogo2,-1,27,1,,,,,,,-1,-1,1400,0,ITI,poldrack-single-stim,289,391587,0.0-6.1-84.1,go_nogo_deval,459,,<div></div>,32,1400,test,,,,,,,,,,,,-1,-1,500,0,fixation,poldrack-single-stim,290,392089,0.0-6.1-85.1,go_nogo_deval,459,,<div class = centerbox><div class = fixation>+</div></div>,none,500,test,,,,,,,,,,,,353,32,850,0,stim,poldrack-single-stim,291,392940,0.0-6.1-86.1,go_nogo_deval,459,,<img class = center src='/static/experiments/go_nogo_deval/images/green_rhombus.png'></img>,32,850,test,green_rhombus,nogo1,-1,28,1,,,,,,,-1,-1,1400,0,ITI,poldrack-single-stim,292,394342,0.0-6.1-87.1,go_nogo_deval,459,,<div></div>,32,1400,test,,,,,,,,,,,,-1,-1,500,0,fixation,poldrack-single-stim,293,394843,0.0-6.1-88.1,go_nogo_deval,459,,<div class = centerbox><div class = fixation>+</div></div>,none,500,test,,,,,,,,,,,,456,32,850,0,stim,poldrack-single-stim,294,395694,0.0-6.1-89.1,go_nogo_deval,459,,<img class = center src='/static/experiments/go_nogo_deval/images/red_circle.png'></img>,32,850,test,red_circle,go1,32,29,1,,,,,,,-1,-1,1400,0,ITI,poldrack-single-stim,295,397096,0.0-6.1-90.1,go_nogo_deval,459,,<div></div>,32,1400,test,,,,,,,,,,,,-1,-1,500,0,fixation,poldrack-single-stim,296,397598,0.0-6.1-91.1,go_nogo_deval,459,,<div class = centerbox><div class = fixation>+</div></div>,none,500,test,,,,,,,,,,,,322,32,850,0,stim,poldrack-single-stim,297,398450,0.0-6.1-92.1,go_nogo_deval,459,,<img class = center src='/static/experiments/go_nogo_deval/images/blue_triangle.png'></img>,32,850,test,blue_triangle,go2,32,30,1,,,,,,,-1,-1,1400,0,ITI,poldrack-single-stim,298,399852,0.0-6.1-93.1,go_nogo_deval,459,,<div></div>,32,1400,test,,,,,,,,,,,,-1,-1,500,0,fixation,poldrack-single-stim,299,400353,0.0-6.1-94.1,go_nogo_deval,459,,<div class = centerbox><div class = fixation>+</div></div>,none,500,test,,,,,,,,,,,,401,32,850,0,stim,poldrack-single-stim,300,401205,0.0-6.1-95.1,go_nogo_deval,459,,<img class = center src='/static/experiments/go_nogo_deval/images/red_circle.png'></img>,32,850,test,red_circle,go1,32,31,1,,,,,,,-1,-1,1400,0,ITI,poldrack-single-stim,301,402607,0.0-6.1-96.1,go_nogo_deval,459,,<div></div>,32,1400,test,,,,,,,,,,,,-1,-1,500,0,fixation,poldrack-single-stim,302,403108,0.0-6.1-97.1,go_nogo_deval,459,,<div class = centerbox><div class = fixation>+</div></div>,none,500,test,,,,,,,,,,,,392,32,850,0,stim,poldrack-single-stim,303,403960,0.0-6.1-98.1,go_nogo_deval,459,,<img class = center src='/static/experiments/go_nogo_deval/images/blue_triangle.png'></img>,32,850,test,blue_triangle,go2,32,32,1,,,,,,,-1,-1,1400,0,ITI,poldrack-single-stim,304,405361,0.0-6.1-99.1,go_nogo_deval,459,,<div></div>,32,1400,test,,,,,,,,,,,,-1,-1,500,0,fixation,poldrack-single-stim,305,405862,0.0-6.1-100.1,go_nogo_deval,459,,<div class = centerbox><div class = fixation>+</div></div>,none,500,test,,,,,,,,,,,,326,32,850,0,stim,poldrack-single-stim,306,406714,0.0-6.1-101.1,go_nogo_deval,459,,<img class = center src='/static/experiments/go_nogo_deval/images/red_circle.png'></img>,32,850,test,red_circle,go1,32,33,1,,,,,,,-1,-1,1400,0,ITI,poldrack-single-stim,307,408116,0.0-6.1-102.1,go_nogo_deval,459,,<div></div>,32,1400,test,,,,,,,,,,,,-1,-1,500,0,fixation,poldrack-single-stim,308,408618,0.0-6.1-103.1,go_nogo_deval,459,,<div class = centerbox><div class = fixation>+</div></div>,none,500,test,,,,,,,,,,,,428,32,850,0,stim,poldrack-single-stim,309,409469,0.0-6.1-104.1,go_nogo_deval,459,,<img class = center src='/static/experiments/go_nogo_deval/images/blue_triangle.png'></img>,32,850,test,blue_triangle,go2,32,34,1,,,,,,,-1,-1,1400,0,ITI,poldrack-single-stim,310,410871,0.0-6.1-105.1,go_nogo_deval,459,,<div></div>,32,1400,test,,,,,,,,,,,,-1,-1,500,0,fixation,poldrack-single-stim,311,411372,0.0-6.1-106.1,go_nogo_deval,459,,<div class = centerbox><div class = fixation>+</div></div>,none,500,test,,,,,,,,,,,,306,32,850,0,stim,poldrack-single-stim,312,412224,0.0-6.1-107.1,go_nogo_deval,459,,<img class = center src='/static/experiments/go_nogo_deval/images/red_circle.png'></img>,32,850,test,red_circle,go1,32,35,1,,,,,,,-1,-1,1400,0,ITI,poldrack-single-stim,313,413625,0.0-6.1-108.1,go_nogo_deval,459,,<div></div>,32,1400,test,,,,,,,,,,,,-1,-1,500,0,fixation,poldrack-single-stim,314,414127,0.0-6.1-109.1,go_nogo_deval,459,,<div class = centerbox><div class = fixation>+</div></div>,none,500,test,,,,,,,,,,,,330,32,850,0,stim,poldrack-single-stim,315,414979,0.0-6.1-110.1,go_nogo_deval,459,,<img class = center src='/static/experiments/go_nogo_deval/images/blue_triangle.png'></img>,32,850,test,blue_triangle,go2,32,36,1,,,,,,,-1,-1,1400,0,ITI,poldrack-single-stim,316,416381,0.0-6.1-111.1,go_nogo_deval,459,,<div></div>,32,1400,test,,,,,,,,,,,,-1,-1,500,0,fixation,poldrack-single-stim,317,416882,0.0-6.1-112.1,go_nogo_deval,459,,<div class = centerbox><div class = fixation>+</div></div>,none,500,test,,,,,,,,,,,,388,32,850,0,stim,poldrack-single-stim,318,417733,0.0-6.1-113.1,go_nogo_deval,459,,<img class = center src='/static/experiments/go_nogo_deval/images/red_circle.png'></img>,32,850,test,red_circle,go1,32,37,1,,,,,,,-1,-1,1400,0,ITI,poldrack-single-stim,319,419135,0.0-6.1-114.1,go_nogo_deval,459,,<div></div>,32,1400,test,,,,,,,,,,,,-1,-1,500,0,fixation,poldrack-single-stim,320,419637,0.0-6.1-115.1,go_nogo_deval,459,,<div class = centerbox><div class = fixation>+</div></div>,none,500,test,,,,,,,,,,,,322,32,850,0,stim,poldrack-single-stim,321,420489,0.0-6.1-116.1,go_nogo_deval,459,,<img class = center src='/static/experiments/go_nogo_deval/images/red_circle.png'></img>,32,850,test,red_circle,go1,32,38,1,,,,,,,-1,-1,1400,0,ITI,poldrack-single-stim,322,421891,0.0-6.1-117.1,go_nogo_deval,459,,<div></div>,32,1400,test,,,,,,,,,,,,-1,-1,500,0,fixation,poldrack-single-stim,323,422392,0.0-6.1-118.1,go_nogo_deval,459,,<div class = centerbox><div class = fixation>+</div></div>,none,500,test,,,,,,,,,,,,333,32,850,0,stim,poldrack-single-stim,324,423244,0.0-6.1-119.1,go_nogo_deval,459,,<img class = center src='/static/experiments/go_nogo_deval/images/blue_triangle.png'></img>,32,850,test,blue_triangle,go2,32,39,1,,,,,,,-1,-1,1400,0,ITI,poldrack-single-stim,325,424646,0.0-6.1-120.1,go_nogo_deval,459,,<div></div>,32,1400,test,,,,,,,,,,,,-1,-1,500,0,fixation,poldrack-single-stim,326,425148,0.0-6.1-121.1,go_nogo_deval,459,,<div class = centerbox><div class = fixation>+</div></div>,none,500,test,,,,,,,,,,,,-1,-1,850,0,stim,poldrack-single-stim,327,426000,0.0-6.1-122.1,go_nogo_deval,459,,<img class = center src='/static/experiments/go_nogo_deval/images/purple_pentagon.png'></img>,32,850,test,purple_pentagon,nogo2,-1,40,1,,,,,,,-1,-1,1400,0,ITI,poldrack-single-stim,328,427400,0.0-6.1-123.1,go_nogo_deval,459,,<div></div>,32,1400,test,,,,,,,,,,,,-1,-1,500,0,fixation,poldrack-single-stim,329,427902,0.0-6.1-124.1,go_nogo_deval,459,,<div class = centerbox><div class = fixation>+</div></div>,none,500,test,,,,,,,,,,,,371,32,850,0,stim,poldrack-single-stim,330,428754,0.0-6.1-125.1,go_nogo_deval,459,,<img class = center src='/static/experiments/go_nogo_deval/images/blue_triangle.png'></img>,32,850,test,blue_triangle,go2,32,41,1,,,,,,,-1,-1,1400,0,ITI,poldrack-single-stim,331,430155,0.0-6.1-126.1,go_nogo_deval,459,,<div></div>,32,1400,test,,,,,,,,,,,,-1,-1,500,0,fixation,poldrack-single-stim,332,430656,0.0-6.1-127.1,go_nogo_deval,459,,<div class = centerbox><div class = fixation>+</div></div>,none,500,test,,,,,,,,,,,,316,32,850,0,stim,poldrack-single-stim,333,431508,0.0-6.1-128.1,go_nogo_deval,459,,<img class = center src='/static/experiments/go_nogo_deval/images/red_circle.png'></img>,32,850,test,red_circle,go1,32,42,1,,,,,,,-1,-1,1400,0,ITI,poldrack-single-stim,334,432910,0.0-6.1-129.1,go_nogo_deval,459,,<div></div>,32,1400,test,,,,,,,,,,,,-1,-1,500,0,fixation,poldrack-single-stim,335,433412,0.0-6.1-130.1,go_nogo_deval,459,,<div class = centerbox><div class = fixation>+</div></div>,none,500,test,,,,,,,,,,,,-1,-1,850,0,stim,poldrack-single-stim,336,434264,0.0-6.1-131.1,go_nogo_deval,459,,<img class = center src='/static/experiments/go_nogo_deval/images/purple_pentagon.png'></img>,32,850,test,purple_pentagon,nogo2,-1,43,1,,,,,,,-1,-1,1400,0,ITI,poldrack-single-stim,337,435666,0.0-6.1-132.1,go_nogo_deval,459,,<div></div>,32,1400,test,,,,,,,,,,,,-1,-1,500,0,fixation,poldrack-single-stim,338,436167,0.0-6.1-133.1,go_nogo_deval,459,,<div class = centerbox><div class = fixation>+</div></div>,none,500,test,,,,,,,,,,,,351,32,850,0,stim,poldrack-single-stim,339,437018,0.0-6.1-134.1,go_nogo_deval,459,,<img class = center src='/static/experiments/go_nogo_deval/images/blue_triangle.png'></img>,32,850,test,blue_triangle,go2,32,44,1,,,,,,,-1,-1,1400,0,ITI,poldrack-single-stim,340,438420,0.0-6.1-135.1,go_nogo_deval,459,,<div></div>,32,1400,test,,,,,,,,,,,,-1,-1,500,0,fixation,poldrack-single-stim,341,438922,0.0-6.1-136.1,go_nogo_deval,459,,<div class = centerbox><div class = fixation>+</div></div>,none,500,test,,,,,,,,,,,,354,32,850,0,stim,poldrack-single-stim,342,439774,0.0-6.1-137.1,go_nogo_deval,459,,<img class = center src='/static/experiments/go_nogo_deval/images/red_circle.png'></img>,32,850,test,red_circle,go1,32,45,1,,,,,,,-1,-1,1400,0,ITI,poldrack-single-stim,343,441175,0.0-6.1-138.1,go_nogo_deval,459,,<div></div>,32,1400,test,,,,,,,,,,,,-1,-1,500,0,fixation,poldrack-single-stim,344,441676,0.0-6.1-139.1,go_nogo_deval,459,,<div class = centerbox><div class = fixation>+</div></div>,none,500,test,,,,,,,,,,,,287,32,850,0,stim,poldrack-single-stim,345,442527,0.0-6.1-140.1,go_nogo_deval,459,,<img class = center src='/static/experiments/go_nogo_deval/images/blue_triangle.png'></img>,32,850,test,blue_triangle,go2,32,46,1,,,,,,,-1,-1,1400,0,ITI,poldrack-single-stim,346,443929,0.0-6.1-141.1,go_nogo_deval,459,,<div></div>,32,1400,test,,,,,,,,,,,,-1,-1,500,0,fixation,poldrack-single-stim,347,444431,0.0-6.1-142.1,go_nogo_deval,459,,<div class = centerbox><div class = fixation>+</div></div>,none,500,test,,,,,,,,,,,,402,32,850,0,stim,poldrack-single-stim,348,445283,0.0-6.1-143.1,go_nogo_deval,459,,<img class = center src='/static/experiments/go_nogo_deval/images/blue_triangle.png'></img>,32,850,test,blue_triangle,go2,32,47,1,,,,,,,-1,-1,1400,0,ITI,poldrack-single-stim,349,446685,0.0-6.1-144.1,go_nogo_deval,459,,<div></div>,32,1400,test,,,,,,,,,,,,15178,13,15178,0,practice-no-stop-feedback,poldrack-single-stim,350,461866,0.0-6.2-0.2,go_nogo_deval,459,,"<div class = centerbox><p class = block-text><br>Please take this time to read your feedback and to take a short break! Press enter to continue</p><p class = block-text><strong>Average reaction time:  349 ms. Accuracy: 92%</strong></p><p class = block-text>We have detected a number of trials that <strong>required no response</strong>, where a response was made.  Please <strong>ensure that you do not respond </strong>to shapes that require no response</p></div>",13,15178,,,,,,,,,,,,,-1,-1,500,0,fixation,poldrack-single-stim,351,462368,0.0-6.2-1.2,go_nogo_deval,459,,<div class = centerbox><div class = fixation>+</div></div>,none,500,test,,,,,,,,,,,,-1,-1,850,0,stim,poldrack-single-stim,352,463220,0.0-6.2-2.2,go_nogo_deval,459,,<img class = center src='/static/experiments/go_nogo_deval/images/purple_pentagon.png'></img>,32,850,test,purple_pentagon,nogo2,-1,0,2,,,,,,,-1,-1,1400,0,ITI,poldrack-single-stim,353,464622,0.0-6.2-3.2,go_nogo_deval,459,,<div></div>,32,1400,test,,,,,,,,,,,,-1,-1,500,0,fixation,poldrack-single-stim,354,465124,0.0-6.2-4.2,go_nogo_deval,459,,<div class = centerbox><div class = fixation>+</div></div>,none,500,test,,,,,,,,,,,,-1,-1,850,0,stim,poldrack-single-stim,355,465975,0.0-6.2-5.2,go_nogo_deval,459,,<img class = center src='/static/experiments/go_nogo_deval/images/purple_pentagon.png'></img>,32,850,test,purple_pentagon,nogo2,-1,1,2,,,,,,,-1,-1,1400,0,ITI,poldrack-single-stim,356,467377,0.0-6.2-6.2,go_nogo_deval,459,,<div></div>,32,1400,test,,,,,,,,,,,,-1,-1,500,0,fixation,poldrack-single-stim,357,467878,0.0-6.2-7.2,go_nogo_deval,459,,<div class = centerbox><div class = fixation>+</div></div>,none,500,test,,,,,,,,,,,,310,32,850,0,stim,poldrack-single-stim,358,468730,0.0-6.2-8.2,go_nogo_deval,459,,<img class = center src='/static/experiments/go_nogo_deval/images/blue_triangle.png'></img>,32,850,test,blue_triangle,go2,32,2,2,,,,,,,-1,-1,1400,0,ITI,poldrack-single-stim,359,470130,0.0-6.2-9.2,go_nogo_deval,459,,<div></div>,32,1400,test,,,,,,,,,,,,-1,-1,500,0,fixation,poldrack-single-stim,360,470632,0.0-6.2-10.2,go_nogo_deval,459,,<div class = centerbox><div class = fixation>+</div></div>,none,500,test,,,,,,,,,,,,312,32,850,0,stim,poldrack-single-stim,361,471484,0.0-6.2-11.2,go_nogo_deval,459,,<img class = center src='/static/experiments/go_nogo_deval/images/red_circle.png'></img>,32,850,test,red_circle,go1,32,3,2,,,,,,,-1,-1,1400,0,ITI,poldrack-single-stim,362,472886,0.0-6.2-12.2,go_nogo_deval,459,,<div></div>,32,1400,test,,,,,,,,,,,,-1,-1,500,0,fixation,poldrack-single-stim,363,473388,0.0-6.2-13.2,go_nogo_deval,459,,<div class = centerbox><div class = fixation>+</div></div>,none,500,test,,,,,,,,,,,,392,32,850,0,stim,poldrack-single-stim,364,474238,0.0-6.2-14.2,go_nogo_deval,459,,<img class = center src='/static/experiments/go_nogo_deval/images/green_rhombus.png'></img>,32,850,test,green_rhombus,nogo1,-1,4,2,,,,,,,-1,-1,1400,0,ITI,poldrack-single-stim,365,475640,0.0-6.2-15.2,go_nogo_deval,459,,<div></div>,32,1400,test,,,,,,,,,,,,-1,-1,500,0,fixation,poldrack-single-stim,366,476142,0.0-6.2-16.2,go_nogo_deval,459,,<div class = centerbox><div class = fixation>+</div></div>,none,500,test,,,,,,,,,,,,337,32,850,0,stim,poldrack-single-stim,367,476994,0.0-6.2-17.2,go_nogo_deval,459,,<img class = center src='/static/experiments/go_nogo_deval/images/red_circle.png'></img>,32,850,test,red_circle,go1,32,5,2,,,,,,,-1,-1,1400,0,ITI,poldrack-single-stim,368,478395,0.0-6.2-18.2,go_nogo_deval,459,,<div></div>,32,1400,test,,,,,,,,,,,,-1,-1,500,0,fixation,poldrack-single-stim,369,478896,0.0-6.2-19.2,go_nogo_deval,459,,<div class = centerbox><div class = fixation>+</div></div>,none,500,test,,,,,,,,,,,,327,32,850,0,stim,poldrack-single-stim,370,479748,0.0-6.2-20.2,go_nogo_deval,459,,<img class = center src='/static/experiments/go_nogo_deval/images/blue_triangle.png'></img>,32,850,test,blue_triangle,go2,32,6,2,,,,,,,-1,-1,1400,0,ITI,poldrack-single-stim,371,481150,0.0-6.2-21.2,go_nogo_deval,459,,<div></div>,32,1400,test,,,,,,,,,,,,-1,-1,500,0,fixation,poldrack-single-stim,372,481651,0.0-6.2-22.2,go_nogo_deval,459,,<div class = centerbox><div class = fixation>+</div></div>,none,500,test,,,,,,,,,,,,-1,-1,850,0,stim,poldrack-single-stim,373,482503,0.0-6.2-23.2,go_nogo_deval,459,,<img class = center src='/static/experiments/go_nogo_deval/images/green_rhombus.png'></img>,32,850,test,green_rhombus,nogo1,-1,7,2,,,,,,,-1,-1,1400,0,ITI,poldrack-single-stim,374,483905,0.0-6.2-24.2,go_nogo_deval,459,,<div></div>,32,1400,test,,,,,,,,,,,,-1,-1,500,0,fixation,poldrack-single-stim,375,484405,0.0-6.2-25.2,go_nogo_deval,459,,<div class = centerbox><div class = fixation>+</div></div>,none,500,test,,,,,,,,,,,,287,32,850,0,stim,poldrack-single-stim,376,485257,0.0-6.2-26.2,go_nogo_deval,459,,<img class = center src='/static/experiments/go_nogo_deval/images/blue_triangle.png'></img>,32,850,test,blue_triangle,go2,32,8,2,,,,,,,-1,-1,1400,0,ITI,poldrack-single-stim,377,486659,0.0-6.2-27.2,go_nogo_deval,459,,<div></div>,32,1400,test,,,,,,,,,,,,-1,-1,500,0,fixation,poldrack-single-stim,378,487160,0.0-6.2-28.2,go_nogo_deval,459,,<div class = centerbox><div class = fixation>+</div></div>,none,500,test,,,,,,,,,,,,300,32,850,0,stim,poldrack-single-stim,379,488012,0.0-6.2-29.2,go_nogo_deval,459,,<img class = center src='/static/experiments/go_nogo_deval/images/blue_triangle.png'></img>,32,850,test,blue_triangle,go2,32,9,2,,,,,,,-1,-1,1400,0,ITI,poldrack-single-stim,380,489412,0.0-6.2-30.2,go_nogo_deval,459,,<div></div>,32,1400,test,,,,,,,,,,,,-1,-1,500,0,fixation,poldrack-single-stim,381,489914,0.0-6.2-31.2,go_nogo_deval,459,,<div class = centerbox><div class = fixation>+</div></div>,none,500,test,,,,,,,,,,,,-1,-1,850,0,stim,poldrack-single-stim,382,490766,0.0-6.2-32.2,go_nogo_deval,459,,<img class = center src='/static/experiments/go_nogo_deval/images/green_rhombus.png'></img>,32,850,test,green_rhombus,nogo1,-1,10,2,,,,,,,-1,-1,1400,0,ITI,poldrack-single-stim,383,492168,0.0-6.2-33.2,go_nogo_deval,459,,<div></div>,32,1400,test,,,,,,,,,,,,-1,-1,500,0,fixation,poldrack-single-stim,384,492670,0.0-6.2-34.2,go_nogo_deval,459,,<div class = centerbox><div class = fixation>+</div></div>,none,500,test,,,,,,,,,,,,302,32,850,0,stim,poldrack-single-stim,385,493522,0.0-6.2-35.2,go_nogo_deval,459,,<img class = center src='/static/experiments/go_nogo_deval/images/blue_triangle.png'></img>,32,850,test,blue_triangle,go2,32,11,2,,,,,,,-1,-1,1400,0,ITI,poldrack-single-stim,386,494923,0.0-6.2-36.2,go_nogo_deval,459,,<div></div>,32,1400,test,,,,,,,,,,,,-1,-1,500,0,fixation,poldrack-single-stim,387,495425,0.0-6.2-37.2,go_nogo_deval,459,,<div class = centerbox><div class = fixation>+</div></div>,none,500,test,,,,,,,,,,,,304,32,850,0,stim,poldrack-single-stim,388,496277,0.0-6.2-38.2,go_nogo_deval,459,,<img class = center src='/static/experiments/go_nogo_deval/images/blue_triangle.png'></img>,32,850,test,blue_triangle,go2,32,12,2,,,,,,,-1,-1,1400,0,ITI,poldrack-single-stim,389,497678,0.0-6.2-39.2,go_nogo_deval,459,,<div></div>,32,1400,test,,,,,,,,,,,,-1,-1,500,0,fixation,poldrack-single-stim,390,498180,0.0-6.2-40.2,go_nogo_deval,459,,<div class = centerbox><div class = fixation>+</div></div>,none,500,test,,,,,,,,,,,,305,32,850,0,stim,poldrack-single-stim,391,499030,0.0-6.2-41.2,go_nogo_deval,459,,<img class = center src='/static/experiments/go_nogo_deval/images/red_circle.png'></img>,32,850,test,red_circle,go1,32,13,2,,,,,,,-1,-1,1400,0,ITI,poldrack-single-stim,392,500432,0.0-6.2-42.2,go_nogo_deval,459,,<div></div>,32,1400,test,,,,,,,,,,,,-1,-1,500,0,fixation,poldrack-single-stim,393,500934,0.0-6.2-43.2,go_nogo_deval,459,,<div class = centerbox><div class = fixation>+</div></div>,none,500,test,,,,,,,,,,,,-1,-1,850,0,stim,poldrack-single-stim,394,501787,0.0-6.2-44.2,go_nogo_deval,459,,<img class = center src='/static/experiments/go_nogo_deval/images/green_rhombus.png'></img>,32,850,test,green_rhombus,nogo1,-1,14,2,,,,,,,-1,-1,1400,0,ITI,poldrack-single-stim,395,503189,0.0-6.2-45.2,go_nogo_deval,459,,<div></div>,32,1400,test,,,,,,,,,,,,-1,-1,500,0,fixation,poldrack-single-stim,396,503691,0.0-6.2-46.2,go_nogo_deval,459,,<div class = centerbox><div class = fixation>+</div></div>,none,500,test,,,,,,,,,,,,396,32,850,0,stim,poldrack-single-stim,397,504543,0.0-6.2-47.2,go_nogo_deval,459,,<img class = center src='/static/experiments/go_nogo_deval/images/red_circle.png'></img>,32,850,test,red_circle,go1,32,15,2,,,,,,,-1,-1,1400,0,ITI,poldrack-single-stim,398,505944,0.0-6.2-48.2,go_nogo_deval,459,,<div></div>,32,1400,test,,,,,,,,,,,,-1,-1,500,0,fixation,poldrack-single-stim,399,506446,0.0-6.2-49.2,go_nogo_deval,459,,<div class = centerbox><div class = fixation>+</div></div>,none,500,test,,,,,,,,,,,,285,32,850,0,stim,poldrack-single-stim,400,507297,0.0-6.2-50.2,go_nogo_deval,459,,<img class = center src='/static/experiments/go_nogo_deval/images/blue_triangle.png'></img>,32,850,test,blue_triangle,go2,32,16,2,,,,,,,-1,-1,1400,0,ITI,poldrack-single-stim,401,508698,0.0-6.2-51.2,go_nogo_deval,459,,<div></div>,32,1400,test,,,,,,,,,,,,-1,-1,500,0,fixation,poldrack-single-stim,402,509201,0.0-6.2-52.2,go_nogo_deval,459,,<div class = centerbox><div class = fixation>+</div></div>,none,500,test,,,,,,,,,,,,320,32,850,0,stim,poldrack-single-stim,403,510052,0.0-6.2-53.2,go_nogo_deval,459,,<img class = center src='/static/experiments/go_nogo_deval/images/red_circle.png'></img>,32,850,test,red_circle,go1,32,17,2,,,,,,,-1,-1,1400,0,ITI,poldrack-single-stim,404,511454,0.0-6.2-54.2,go_nogo_deval,459,,<div></div>,32,1400,test,,,,,,,,,,,,-1,-1,500,0,fixation,poldrack-single-stim,405,511956,0.0-6.2-55.2,go_nogo_deval,459,,<div class = centerbox><div class = fixation>+</div></div>,none,500,test,,,,,,,,,,,,321,32,850,0,stim,poldrack-single-stim,406,512808,0.0-6.2-56.2,go_nogo_deval,459,,<img class = center src='/static/experiments/go_nogo_deval/images/red_circle.png'></img>,32,850,test,red_circle,go1,32,18,2,,,,,,,-1,-1,1400,0,ITI,poldrack-single-stim,407,514210,0.0-6.2-57.2,go_nogo_deval,459,,<div></div>,32,1400,test,,,,,,,,,,,,-1,-1,500,0,fixation,poldrack-single-stim,408,514712,0.0-6.2-58.2,go_nogo_deval,459,,<div class = centerbox><div class = fixation>+</div></div>,none,500,test,,,,,,,,,,,,423,32,850,0,stim,poldrack-single-stim,409,515562,0.0-6.2-59.2,go_nogo_deval,459,,<img class = center src='/static/experiments/go_nogo_deval/images/blue_triangle.png'></img>,32,850,test,blue_triangle,go2,32,19,2,,,,,,,-1,-1,1400,0,ITI,poldrack-single-stim,410,516964,0.0-6.2-60.2,go_nogo_deval,459,,<div></div>,32,1400,test,,,,,,,,,,,,-1,-1,500,0,fixation,poldrack-single-stim,411,517465,0.0-6.2-61.2,go_nogo_deval,459,,<div class = centerbox><div class = fixation>+</div></div>,none,500,test,,,,,,,,,,,,314,32,850,0,stim,poldrack-single-stim,412,518317,0.0-6.2-62.2,go_nogo_deval,459,,<img class = center src='/static/experiments/go_nogo_deval/images/red_circle.png'></img>,32,850,test,red_circle,go1,32,20,2,,,,,,,-1,-1,1400,0,ITI,poldrack-single-stim,413,519718,0.0-6.2-63.2,go_nogo_deval,459,,<div></div>,32,1400,test,,,,,,,,,,,,-1,-1,500,0,fixation,poldrack-single-stim,414,520220,0.0-6.2-64.2,go_nogo_deval,459,,<div class = centerbox><div class = fixation>+</div></div>,none,500,test,,,,,,,,,,,,405,32,850,0,stim,poldrack-single-stim,415,521071,0.0-6.2-65.2,go_nogo_deval,459,,<img class = center src='/static/experiments/go_nogo_deval/images/red_circle.png'></img>,32,850,test,red_circle,go1,32,21,2,,,,,,,-1,-1,1400,0,ITI,poldrack-single-stim,416,522473,0.0-6.2-66.2,go_nogo_deval,459,,<div></div>,32,1400,test,,,,,,,,,,,,-1,-1,500,0,fixation,poldrack-single-stim,417,522975,0.0-6.2-67.2,go_nogo_deval,459,,<div class = centerbox><div class = fixation>+</div></div>,none,500,test,,,,,,,,,,,,395,32,850,0,stim,poldrack-single-stim,418,523826,0.0-6.2-68.2,go_nogo_deval,459,,<img class = center src='/static/experiments/go_nogo_deval/images/red_circle.png'></img>,32,850,test,red_circle,go1,32,22,2,,,,,,,-1,-1,1400,0,ITI,poldrack-single-stim,419,525227,0.0-6.2-69.2,go_nogo_deval,459,,<div></div>,32,1400,test,,,,,,,,,,,,-1,-1,500,0,fixation,poldrack-single-stim,420,525729,0.0-6.2-70.2,go_nogo_deval,459,,<div class = centerbox><div class = fixation>+</div></div>,none,500,test,,,,,,,,,,,,352,32,850,0,stim,poldrack-single-stim,421,526581,0.0-6.2-71.2,go_nogo_deval,459,,<img class = center src='/static/experiments/go_nogo_deval/images/red_circle.png'></img>,32,850,test,red_circle,go1,32,23,2,,,,,,,-1,-1,1400,0,ITI,poldrack-single-stim,422,527983,0.0-6.2-72.2,go_nogo_deval,459,,<div></div>,32,1400,test,,,,,,,,,,,,-1,-1,500,0,fixation,poldrack-single-stim,423,528484,0.0-6.2-73.2,go_nogo_deval,459,,<div class = centerbox><div class = fixation>+</div></div>,none,500,test,,,,,,,,,,,,-1,-1,850,0,stim,poldrack-single-stim,424,529336,0.0-6.2-74.2,go_nogo_deval,459,,<img class = center src='/static/experiments/go_nogo_deval/images/purple_pentagon.png'></img>,32,850,test,purple_pentagon,nogo2,-1,24,2,,,,,,,-1,-1,1400,0,ITI,poldrack-single-stim,425,530737,0.0-6.2-75.2,go_nogo_deval,459,,<div></div>,32,1400,test,,,,,,,,,,,,-1,-1,500,0,fixation,poldrack-single-stim,426,531239,0.0-6.2-76.2,go_nogo_deval,459,,<div class = centerbox><div class = fixation>+</div></div>,none,500,test,,,,,,,,,,,,322,32,850,0,stim,poldrack-single-stim,427,532091,0.0-6.2-77.2,go_nogo_deval,459,,<img class = center src='/static/experiments/go_nogo_deval/images/red_circle.png'></img>,32,850,test,red_circle,go1,32,25,2,,,,,,,-1,-1,1400,0,ITI,poldrack-single-stim,428,533493,0.0-6.2-78.2,go_nogo_deval,459,,<div></div>,32,1400,test,,,,,,,,,,,,-1,-1,500,0,fixation,poldrack-single-stim,429,533994,0.0-6.2-79.2,go_nogo_deval,459,,<div class = centerbox><div class = fixation>+</div></div>,none,500,test,,,,,,,,,,,,-1,-1,850,0,stim,poldrack-single-stim,430,534846,0.0-6.2-80.2,go_nogo_deval,459,,<img class = center src='/static/experiments/go_nogo_deval/images/purple_pentagon.png'></img>,32,850,test,purple_pentagon,nogo2,-1,26,2,,,,,,,-1,-1,1400,0,ITI,poldrack-single-stim,431,536247,0.0-6.2-81.2,go_nogo_deval,459,,<div></div>,32,1400,test,,,,,,,,,,,,-1,-1,500,0,fixation,poldrack-single-stim,432,536748,0.0-6.2-82.2,go_nogo_deval,459,,<div class = centerbox><div class = fixation>+</div></div>,none,500,test,,,,,,,,,,,,357,32,850,0,stim,poldrack-single-stim,433,537600,0.0-6.2-83.2,go_nogo_deval,459,,<img class = center src='/static/experiments/go_nogo_deval/images/red_circle.png'></img>,32,850,test,red_circle,go1,32,27,2,,,,,,,-1,-1,1400,0,ITI,poldrack-single-stim,434,539001,0.0-6.2-84.2,go_nogo_deval,459,,<div></div>,32,1400,test,,,,,,,,,,,,-1,-1,500,0,fixation,poldrack-single-stim,435,539502,0.0-6.2-85.2,go_nogo_deval,459,,<div class = centerbox><div class = fixation>+</div></div>,none,500,test,,,,,,,,,,,,-1,-1,850,0,stim,poldrack-single-stim,436,540354,0.0-6.2-86.2,go_nogo_deval,459,,<img class = center src='/static/experiments/go_nogo_deval/images/purple_pentagon.png'></img>,32,850,test,purple_pentagon,nogo2,-1,28,2,,,,,,,-1,-1,1400,0,ITI,poldrack-single-stim,437,541756,0.0-6.2-87.2,go_nogo_deval,459,,<div></div>,32,1400,test,,,,,,,,,,,,-1,-1,500,0,fixation,poldrack-single-stim,438,542258,0.0-6.2-88.2,go_nogo_deval,459,,<div class = centerbox><div class = fixation>+</div></div>,none,500,test,,,,,,,,,,,,339,32,850,0,stim,poldrack-single-stim,439,543110,0.0-6.2-89.2,go_nogo_deval,459,,<img class = center src='/static/experiments/go_nogo_deval/images/red_circle.png'></img>,32,850,test,red_circle,go1,32,29,2,,,,,,,-1,-1,1400,0,ITI,poldrack-single-stim,440,544510,0.0-6.2-90.2,go_nogo_deval,459,,<div></div>,32,1400,test,,,,,,,,,,,,-1,-1,500,0,fixation,poldrack-single-stim,441,545012,0.0-6.2-91.2,go_nogo_deval,459,,<div class = centerbox><div class = fixation>+</div></div>,none,500,test,,,,,,,,,,,,441,32,850,0,stim,poldrack-single-stim,442,545865,0.0-6.2-92.2,go_nogo_deval,459,,<img class = center src='/static/experiments/go_nogo_deval/images/green_rhombus.png'></img>,32,850,test,green_rhombus,nogo1,-1,30,2,,,,,,,-1,-1,1400,0,ITI,poldrack-single-stim,443,547267,0.0-6.2-93.2,go_nogo_deval,459,,<div></div>,32,1400,test,,,,,,,,,,,,-1,-1,500,0,fixation,poldrack-single-stim,444,547768,0.0-6.2-94.2,go_nogo_deval,459,,<div class = centerbox><div class = fixation>+</div></div>,none,500,test,,,,,,,,,,,,430,32,850,0,stim,poldrack-single-stim,445,548620,0.0-6.2-95.2,go_nogo_deval,459,,<img class = center src='/static/experiments/go_nogo_deval/images/blue_triangle.png'></img>,32,850,test,blue_triangle,go2,32,31,2,,,,,,,-1,-1,1400,0,ITI,poldrack-single-stim,446,550022,0.0-6.2-96.2,go_nogo_deval,459,,<div></div>,32,1400,test,,,,,,,,,,,,-1,-1,500,0,fixation,poldrack-single-stim,447,550523,0.0-6.2-97.2,go_nogo_deval,459,,<div class = centerbox><div class = fixation>+</div></div>,none,500,test,,,,,,,,,,,,-1,-1,850,0,stim,poldrack-single-stim,448,551374,0.0-6.2-98.2,go_nogo_deval,459,,<img class = center src='/static/experiments/go_nogo_deval/images/green_rhombus.png'></img>,32,850,test,green_rhombus,nogo1,-1,32,2,,,,,,,-1,-1,1400,0,ITI,poldrack-single-stim,449,552776,0.0-6.2-99.2,go_nogo_deval,459,,<div></div>,32,1400,test,,,,,,,,,,,,-1,-1,500,0,fixation,poldrack-single-stim,450,553278,0.0-6.2-100.2,go_nogo_deval,459,,<div class = centerbox><div class = fixation>+</div></div>,none,500,test,,,,,,,,,,,,-1,-1,850,0,stim,poldrack-single-stim,451,554129,0.0-6.2-101.2,go_nogo_deval,459,,<img class = center src='/static/experiments/go_nogo_deval/images/green_rhombus.png'></img>,32,850,test,green_rhombus,nogo1,-1,33,2,,,,,,,-1,-1,1400,0,ITI,poldrack-single-stim,452,555531,0.0-6.2-102.2,go_nogo_deval,459,,<div></div>,32,1400,test,,,,,,,,,,,,-1,-1,500,0,fixation,poldrack-single-stim,453,556033,0.0-6.2-103.2,go_nogo_deval,459,,<div class = centerbox><div class = fixation>+</div></div>,none,500,test,,,,,,,,,,,,334,32,850,0,stim,poldrack-single-stim,454,556884,0.0-6.2-104.2,go_nogo_deval,459,,<img class = center src='/static/experiments/go_nogo_deval/images/blue_triangle.png'></img>,32,850,test,blue_triangle,go2,32,34,2,,,,,,,-1,-1,1400,0,ITI,poldrack-single-stim,455,558286,0.0-6.2-105.2,go_nogo_deval,459,,<div></div>,32,1400,test,,,,,,,,,,,,-1,-1,500,0,fixation,poldrack-single-stim,456,558788,0.0-6.2-106.2,go_nogo_deval,459,,<div class = centerbox><div class = fixation>+</div></div>,none,500,test,,,,,,,,,,,,380,32,850,0,stim,poldrack-single-stim,457,559640,0.0-6.2-107.2,go_nogo_deval,459,,<img class = center src='/static/experiments/go_nogo_deval/images/blue_triangle.png'></img>,32,850,test,blue_triangle,go2,32,35,2,,,,,,,-1,-1,1400,0,ITI,poldrack-single-stim,458,561042,0.0-6.2-108.2,go_nogo_deval,459,,<div></div>,32,1400,test,,,,,,,,,,,,-1,-1,500,0,fixation,poldrack-single-stim,459,561544,0.0-6.2-109.2,go_nogo_deval,459,,<div class = centerbox><div class = fixation>+</div></div>,none,500,test,,,,,,,,,,,,357,32,850,0,stim,poldrack-single-stim,460,562395,0.0-6.2-110.2,go_nogo_deval,459,,<img class = center src='/static/experiments/go_nogo_deval/images/blue_triangle.png'></img>,32,850,test,blue_triangle,go2,32,36,2,,,,,,,-1,-1,1400,0,ITI,poldrack-single-stim,461,563796,0.0-6.2-111.2,go_nogo_deval,459,,<div></div>,32,1400,test,,,,,,,,,,,,-1,-1,500,0,fixation,poldrack-single-stim,462,564298,0.0-6.2-112.2,go_nogo_deval,459,,<div class = centerbox><div class = fixation>+</div></div>,none,500,test,,,,,,,,,,,,427,32,850,0,stim,poldrack-single-stim,463,565150,0.0-6.2-113.2,go_nogo_deval,459,,<img class = center src='/static/experiments/go_nogo_deval/images/red_circle.png'></img>,32,850,test,red_circle,go1,32,37,2,,,,,,,-1,-1,1400,0,ITI,poldrack-single-stim,464,566551,0.0-6.2-114.2,go_nogo_deval,459,,<div></div>,32,1400,test,,,,,,,,,,,,-1,-1,500,0,fixation,poldrack-single-stim,465,567053,0.0-6.2-115.2,go_nogo_deval,459,,<div class = centerbox><div class = fixation>+</div></div>,none,500,test,,,,,,,,,,,,339,32,850,0,stim,poldrack-single-stim,466,567905,0.0-6.2-116.2,go_nogo_deval,459,,<img class = center src='/static/experiments/go_nogo_deval/images/red_circle.png'></img>,32,850,test,red_circle,go1,32,38,2,,,,,,,-1,-1,1400,0,ITI,poldrack-single-stim,467,569307,0.0-6.2-117.2,go_nogo_deval,459,,<div></div>,32,1400,test,,,,,,,,,,,,-1,-1,500,0,fixation,poldrack-single-stim,468,569807,0.0-6.2-118.2,go_nogo_deval,459,,<div class = centerbox><div class = fixation>+</div></div>,none,500,test,,,,,,,,,,,,407,32,850,0,stim,poldrack-single-stim,469,570659,0.0-6.2-119.2,go_nogo_deval,459,,<img class = center src='/static/experiments/go_nogo_deval/images/blue_triangle.png'></img>,32,850,test,blue_triangle,go2,32,39,2,,,,,,,-1,-1,1400,0,ITI,poldrack-single-stim,470,572061,0.0-6.2-120.2,go_nogo_deval,459,,<div></div>,32,1400,test,,,,,,,,,,,,-1,-1,500,0,fixation,poldrack-single-stim,471,572563,0.0-6.2-121.2,go_nogo_deval,459,,<div class = centerbox><div class = fixation>+</div></div>,none,500,test,,,,,,,,,,,,-1,-1,850,0,stim,poldrack-single-stim,472,573415,0.0-6.2-122.2,go_nogo_deval,459,,<img class = center src='/static/experiments/go_nogo_deval/images/purple_pentagon.png'></img>,32,850,test,purple_pentagon,nogo2,-1,40,2,,,,,,,-1,-1,1400,0,ITI,poldrack-single-stim,473,574817,0.0-6.2-123.2,go_nogo_deval,459,,<div></div>,32,1400,test,,,,,,,,,,,,-1,-1,500,0,fixation,poldrack-single-stim,474,575317,0.0-6.2-124.2,go_nogo_deval,459,,<div class = centerbox><div class = fixation>+</div></div>,none,500,test,,,,,,,,,,,,-1,-1,850,0,stim,poldrack-single-stim,475,576169,0.0-6.2-125.2,go_nogo_deval,459,,<img class = center src='/static/experiments/go_nogo_deval/images/purple_pentagon.png'></img>,32,850,test,purple_pentagon,nogo2,-1,41,2,,,,,,,-1,-1,1400,0,ITI,poldrack-single-stim,476,577571,0.0-6.2-126.2,go_nogo_deval,459,,<div></div>,32,1400,test,,,,,,,,,,,,-1,-1,500,0,fixation,poldrack-single-stim,477,578072,0.0-6.2-127.2,go_nogo_deval,459,,<div class = centerbox><div class = fixation>+</div></div>,none,500,test,,,,,,,,,,,,400,32,850,0,stim,poldrack-single-stim,478,578924,0.0-6.2-128.2,go_nogo_deval,459,,<img class = center src='/static/experiments/go_nogo_deval/images/blue_triangle.png'></img>,32,850,test,blue_triangle,go2,32,42,2,,,,,,,-1,-1,1400,0,ITI,poldrack-single-stim,479,580325,0.0-6.2-129.2,go_nogo_deval,459,,<div></div>,32,1400,test,,,,,,,,,,,,-1,-1,500,0,fixation,poldrack-single-stim,480,580827,0.0-6.2-130.2,go_nogo_deval,459,,<div class = centerbox><div class = fixation>+</div></div>,none,500,test,,,,,,,,,,,,367,32,850,0,stim,poldrack-single-stim,481,581678,0.0-6.2-131.2,go_nogo_deval,459,,<img class = center src='/static/experiments/go_nogo_deval/images/red_circle.png'></img>,32,850,test,red_circle,go1,32,43,2,,,,,,,-1,-1,1400,0,ITI,poldrack-single-stim,482,583080,0.0-6.2-132.2,go_nogo_deval,459,,<div></div>,32,1400,test,,,,,,,,,,,,-1,-1,500,0,fixation,poldrack-single-stim,483,583582,0.0-6.2-133.2,go_nogo_deval,459,,<div class = centerbox><div class = fixation>+</div></div>,none,500,test,,,,,,,,,,,,392,32,850,0,stim,poldrack-single-stim,484,584434,0.0-6.2-134.2,go_nogo_deval,459,,<img class = center src='/static/experiments/go_nogo_deval/images/green_rhombus.png'></img>,32,850,test,green_rhombus,nogo1,-1,44,2,,,,,,,-1,-1,1400,0,ITI,poldrack-single-stim,485,585835,0.0-6.2-135.2,go_nogo_deval,459,,<div></div>,32,1400,test,,,,,,,,,,,,-1,-1,500,0,fixation,poldrack-single-stim,486,586336,0.0-6.2-136.2,go_nogo_deval,459,,<div class = centerbox><div class = fixation>+</div></div>,none,500,test,,,,,,,,,,,,-1,-1,850,0,stim,poldrack-single-stim,487,587188,0.0-6.2-137.2,go_nogo_deval,459,,<img class = center src='/static/experiments/go_nogo_deval/images/purple_pentagon.png'></img>,32,850,test,purple_pentagon,nogo2,-1,45,2,,,,,,,-1,-1,1400,0,ITI,poldrack-single-stim,488,588590,0.0-6.2-138.2,go_nogo_deval,459,,<div></div>,32,1400,test,,,,,,,,,,,,-1,-1,500,0,fixation,poldrack-single-stim,489,589091,0.0-6.2-139.2,go_nogo_deval,459,,<div class = centerbox><div class = fixation>+</div></div>,none,500,test,,,,,,,,,,,,362,32,850,0,stim,poldrack-single-stim,490,589943,0.0-6.2-140.2,go_nogo_deval,459,,<img class = center src='/static/experiments/go_nogo_deval/images/blue_triangle.png'></img>,32,850,test,blue_triangle,go2,32,46,2,,,,,,,-1,-1,1400,0,ITI,poldrack-single-stim,491,591345,0.0-6.2-141.2,go_nogo_deval,459,,<div></div>,32,1400,test,,,,,,,,,,,,-1,-1,500,0,fixation,poldrack-single-stim,492,591846,0.0-6.2-142.2,go_nogo_deval,459,,<div class = centerbox><div class = fixation>+</div></div>,none,500,test,,,,,,,,,,,,465,32,850,0,stim,poldrack-single-stim,493,592698,0.0-6.2-143.2,go_nogo_deval,459,,<img class = center src='/static/experiments/go_nogo_deval/images/blue_triangle.png'></img>,32,850,test,blue_triangle,go2,32,47,2,,,,,,,-1,-1,1400,0,ITI,poldrack-single-stim,494,594100,0.0-6.2-144.2,go_nogo_deval,459,,<div></div>,32,1400,test,,,,,,,,,,,,15992,13,15992,0,practice-no-stop-feedback,poldrack-single-stim,495,610098,0.0-6.3-0.3,go_nogo_deval,459,,"<div class = centerbox><p class = block-text><br>Please take this time to read your feedback and to take a short break! Press enter to continue</p><p class = block-text><strong>Average reaction time:  357 ms. Accuracy: 94%</strong></p><p class = block-text>We have detected a number of trials that <strong>required no response</strong>, where a response was made.  Please <strong>ensure that you do not respond </strong>to shapes that require no response</p></div>",13,15992,,,,,,,,,,,,,-1,-1,500,0,fixation,poldrack-single-stim,496,610599,0.0-6.3-1.3,go_nogo_deval,459,,<div class = centerbox><div class = fixation>+</div></div>,none,500,test,,,,,,,,,,,,-1,-1,850,0,stim,poldrack-single-stim,497,611451,0.0-6.3-2.3,go_nogo_deval,459,,<img class = center src='/static/experiments/go_nogo_deval/images/green_rhombus.png'></img>,32,850,test,green_rhombus,nogo1,-1,0,3,,,,,,,-1,-1,1400,0,ITI,poldrack-single-stim,498,612852,0.0-6.3-3.3,go_nogo_deval,459,,<div></div>,32,1400,test,,,,,,,,,,,,-1,-1,500,0,fixation,poldrack-single-stim,499,613354,0.0-6.3-4.3,go_nogo_deval,459,,<div class = centerbox><div class = fixation>+</div></div>,none,500,test,,,,,,,,,,,,-1,-1,850,0,stim,poldrack-single-stim,500,614206,0.0-6.3-5.3,go_nogo_deval,459,,<img class = center src='/static/experiments/go_nogo_deval/images/purple_pentagon.png'></img>,32,850,test,purple_pentagon,nogo2,-1,1,3,,,,,,,-1,-1,1400,0,ITI,poldrack-single-stim,501,615607,0.0-6.3-6.3,go_nogo_deval,459,,<div></div>,32,1400,test,,,,,,,,,,,,-1,-1,500,0,fixation,poldrack-single-stim,502,616109,0.0-6.3-7.3,go_nogo_deval,459,,<div class = centerbox><div class = fixation>+</div></div>,none,500,test,,,,,,,,,,,,401,32,850,0,stim,poldrack-single-stim,503,616960,0.0-6.3-8.3,go_nogo_deval,459,,<img class = center src='/static/experiments/go_nogo_deval/images/red_circle.png'></img>,32,850,test,red_circle,go1,32,2,3,,,,,,,-1,-1,1400,0,ITI,poldrack-single-stim,504,618362,0.0-6.3-9.3,go_nogo_deval,459,,<div></div>,32,1400,test,,,,,,,,,,,,-1,-1,500,0,fixation,poldrack-single-stim,505,618863,0.0-6.3-10.3,go_nogo_deval,459,,<div class = centerbox><div class = fixation>+</div></div>,none,500,test,,,,,,,,,,,,312,32,850,0,stim,poldrack-single-stim,506,619715,0.0-6.3-11.3,go_nogo_deval,459,,<img class = center src='/static/experiments/go_nogo_deval/images/red_circle.png'></img>,32,850,test,red_circle,go1,32,3,3,,,,,,,-1,-1,1400,0,ITI,poldrack-single-stim,507,621117,0.0-6.3-12.3,go_nogo_deval,459,,<div></div>,32,1400,test,,,,,,,,,,,,-1,-1,500,0,fixation,poldrack-single-stim,508,621618,0.0-6.3-13.3,go_nogo_deval,459,,<div class = centerbox><div class = fixation>+</div></div>,none,500,test,,,,,,,,,,,,-1,-1,850,0,stim,poldrack-single-stim,509,622470,0.0-6.3-14.3,go_nogo_deval,459,,<img class = center src='/static/experiments/go_nogo_deval/images/purple_pentagon.png'></img>,32,850,test,purple_pentagon,nogo2,-1,4,3,,,,,,,-1,-1,1400,0,ITI,poldrack-single-stim,510,623872,0.0-6.3-15.3,go_nogo_deval,459,,<div></div>,32,1400,test,,,,,,,,,,,,-1,-1,500,0,fixation,poldrack-single-stim,511,624373,0.0-6.3-16.3,go_nogo_deval,459,,<div class = centerbox><div class = fixation>+</div></div>,none,500,test,,,,,,,,,,,,293,32,850,0,stim,poldrack-single-stim,512,625225,0.0-6.3-17.3,go_nogo_deval,459,,<img class = center src='/static/experiments/go_nogo_deval/images/red_circle.png'></img>,32,850,test,red_circle,go1,32,5,3,,,,,,,-1,-1,1400,0,ITI,poldrack-single-stim,513,626627,0.0-6.3-18.3,go_nogo_deval,459,,<div></div>,32,1400,test,,,,,,,,,,,,-1,-1,500,0,fixation,poldrack-single-stim,514,627128,0.0-6.3-19.3,go_nogo_deval,459,,<div class = centerbox><div class = fixation>+</div></div>,none,500,test,,,,,,,,,,,,304,32,850,0,stim,poldrack-single-stim,515,627981,0.0-6.3-20.3,go_nogo_deval,459,,<img class = center src='/static/experiments/go_nogo_deval/images/red_circle.png'></img>,32,850,test,red_circle,go1,32,6,3,,,,,,,-1,-1,1400,0,ITI,poldrack-single-stim,516,629382,0.0-6.3-21.3,go_nogo_deval,459,,<div></div>,32,1400,test,,,,,,,,,,,,-1,-1,500,0,fixation,poldrack-single-stim,517,629882,0.0-6.3-22.3,go_nogo_deval,459,,<div class = centerbox><div class = fixation>+</div></div>,none,500,test,,,,,,,,,,,,363,32,850,0,stim,poldrack-single-stim,518,630734,0.0-6.3-23.3,go_nogo_deval,459,,<img class = center src='/static/experiments/go_nogo_deval/images/blue_triangle.png'></img>,32,850,test,blue_triangle,go2,32,7,3,,,,,,,-1,-1,1400,0,ITI,poldrack-single-stim,519,632136,0.0-6.3-24.3,go_nogo_deval,459,,<div></div>,32,1400,test,,,,,,,,,,,,-1,-1,500,0,fixation,poldrack-single-stim,520,632638,0.0-6.3-25.3,go_nogo_deval,459,,<div class = centerbox><div class = fixation>+</div></div>,none,500,test,,,,,,,,,,,,-1,-1,850,0,stim,poldrack-single-stim,521,633489,0.0-6.3-26.3,go_nogo_deval,459,,<img class = center src='/static/experiments/go_nogo_deval/images/green_rhombus.png'></img>,32,850,test,green_rhombus,nogo1,-1,8,3,,,,,,,-1,-1,1400,0,ITI,poldrack-single-stim,522,634890,0.0-6.3-27.3,go_nogo_deval,459,,<div></div>,32,1400,test,,,,,,,,,,,,-1,-1,500,0,fixation,poldrack-single-stim,523,635392,0.0-6.3-28.3,go_nogo_deval,459,,<div class = centerbox><div class = fixation>+</div></div>,none,500,test,,,,,,,,,,,,333,32,850,0,stim,poldrack-single-stim,524,636243,0.0-6.3-29.3,go_nogo_deval,459,,<img class = center src='/static/experiments/go_nogo_deval/images/blue_triangle.png'></img>,32,850,test,blue_triangle,go2,32,9,3,,,,,,,-1,-1,1400,0,ITI,poldrack-single-stim,525,637644,0.0-6.3-30.3,go_nogo_deval,459,,<div></div>,32,1400,test,,,,,,,,,,,,-1,-1,500,0,fixation,poldrack-single-stim,526,638146,0.0-6.3-31.3,go_nogo_deval,459,,<div class = centerbox><div class = fixation>+</div></div>,none,500,test,,,,,,,,,,,,-1,-1,850,0,stim,poldrack-single-stim,527,638997,0.0-6.3-32.3,go_nogo_deval,459,,<img class = center src='/static/experiments/go_nogo_deval/images/purple_pentagon.png'></img>,32,850,test,purple_pentagon,nogo2,-1,10,3,,,,,,,-1,-1,1400,0,ITI,poldrack-single-stim,528,640399,0.0-6.3-33.3,go_nogo_deval,459,,<div></div>,32,1400,test,,,,,,,,,,,,-1,-1,500,0,fixation,poldrack-single-stim,529,640900,0.0-6.3-34.3,go_nogo_deval,459,,<div class = centerbox><div class = fixation>+</div></div>,none,500,test,,,,,,,,,,,,302,32,850,0,stim,poldrack-single-stim,530,641751,0.0-6.3-35.3,go_nogo_deval,459,,<img class = center src='/static/experiments/go_nogo_deval/images/red_circle.png'></img>,32,850,test,red_circle,go1,32,11,3,,,,,,,-1,-1,1400,0,ITI,poldrack-single-stim,531,643153,0.0-6.3-36.3,go_nogo_deval,459,,<div></div>,32,1400,test,,,,,,,,,,,,-1,-1,500,0,fixation,poldrack-single-stim,532,643655,0.0-6.3-37.3,go_nogo_deval,459,,<div class = centerbox><div class = fixation>+</div></div>,none,500,test,,,,,,,,,,,,-1,-1,850,0,stim,poldrack-single-stim,533,644507,0.0-6.3-38.3,go_nogo_deval,459,,<img class = center src='/static/experiments/go_nogo_deval/images/purple_pentagon.png'></img>,32,850,test,purple_pentagon,nogo2,-1,12,3,,,,,,,-1,-1,1400,0,ITI,poldrack-single-stim,534,645908,0.0-6.3-39.3,go_nogo_deval,459,,<div></div>,32,1400,test,,,,,,,,,,,,-1,-1,500,0,fixation,poldrack-single-stim,535,646409,0.0-6.3-40.3,go_nogo_deval,459,,<div class = centerbox><div class = fixation>+</div></div>,none,500,test,,,,,,,,,,,,-1,-1,850,0,stim,poldrack-single-stim,536,647260,0.0-6.3-41.3,go_nogo_deval,459,,<img class = center src='/static/experiments/go_nogo_deval/images/purple_pentagon.png'></img>,32,850,test,purple_pentagon,nogo2,-1,13,3,,,,,,,-1,-1,1400,0,ITI,poldrack-single-stim,537,648661,0.0-6.3-42.3,go_nogo_deval,459,,<div></div>,32,1400,test,,,,,,,,,,,,-1,-1,500,0,fixation,poldrack-single-stim,538,649163,0.0-6.3-43.3,go_nogo_deval,459,,<div class = centerbox><div class = fixation>+</div></div>,none,500,test,,,,,,,,,,,,343,32,850,0,stim,poldrack-single-stim,539,650015,0.0-6.3-44.3,go_nogo_deval,459,,<img class = center src='/static/experiments/go_nogo_deval/images/blue_triangle.png'></img>,32,850,test,blue_triangle,go2,32,14,3,,,,,,,-1,-1,1400,0,ITI,poldrack-single-stim,540,651416,0.0-6.3-45.3,go_nogo_deval,459,,<div></div>,32,1400,test,,,,,,,,,,,,-1,-1,500,0,fixation,poldrack-single-stim,541,651918,0.0-6.3-46.3,go_nogo_deval,459,,<div class = centerbox><div class = fixation>+</div></div>,none,500,test,,,,,,,,,,,,378,32,850,0,stim,poldrack-single-stim,542,652770,0.0-6.3-47.3,go_nogo_deval,459,,<img class = center src='/static/experiments/go_nogo_deval/images/red_circle.png'></img>,32,850,test,red_circle,go1,32,15,3,,,,,,,-1,-1,1400,0,ITI,poldrack-single-stim,543,654172,0.0-6.3-48.3,go_nogo_deval,459,,<div></div>,32,1400,test,,,,,,,,,,,,-1,-1,500,0,fixation,poldrack-single-stim,544,654673,0.0-6.3-49.3,go_nogo_deval,459,,<div class = centerbox><div class = fixation>+</div></div>,none,500,test,,,,,,,,,,,,391,32,850,0,stim,poldrack-single-stim,545,655524,0.0-6.3-50.3,go_nogo_deval,459,,<img class = center src='/static/experiments/go_nogo_deval/images/red_circle.png'></img>,32,850,test,red_circle,go1,32,16,3,,,,,,,-1,-1,1400,0,ITI,poldrack-single-stim,546,656926,0.0-6.3-51.3,go_nogo_deval,459,,<div></div>,32,1400,test,,,,,,,,,,,,-1,-1,500,0,fixation,poldrack-single-stim,547,657428,0.0-6.3-52.3,go_nogo_deval,459,,<div class = centerbox><div class = fixation>+</div></div>,none,500,test,,,,,,,,,,,,347,32,850,0,stim,poldrack-single-stim,548,658279,0.0-6.3-53.3,go_nogo_deval,459,,<img class = center src='/static/experiments/go_nogo_deval/images/red_circle.png'></img>,32,850,test,red_circle,go1,32,17,3,,,,,,,-1,-1,1400,0,ITI,poldrack-single-stim,549,659681,0.0-6.3-54.3,go_nogo_deval,459,,<div></div>,32,1400,test,,,,,,,,,,,,-1,-1,500,0,fixation,poldrack-single-stim,550,660182,0.0-6.3-55.3,go_nogo_deval,459,,<div class = centerbox><div class = fixation>+</div></div>,none,500,test,,,,,,,,,,,,427,32,850,0,stim,poldrack-single-stim,551,661034,0.0-6.3-56.3,go_nogo_deval,459,,<img class = center src='/static/experiments/go_nogo_deval/images/green_rhombus.png'></img>,32,850,test,green_rhombus,nogo1,-1,18,3,,,,,,,-1,-1,1400,0,ITI,poldrack-single-stim,552,662435,0.0-6.3-57.3,go_nogo_deval,459,,<div></div>,32,1400,test,,,,,,,,,,,,-1,-1,500,0,fixation,poldrack-single-stim,553,662937,0.0-6.3-58.3,go_nogo_deval,459,,<div class = centerbox><div class = fixation>+</div></div>,none,500,test,,,,,,,,,,,,328,32,850,0,stim,poldrack-single-stim,554,663789,0.0-6.3-59.3,go_nogo_deval,459,,<img class = center src='/static/experiments/go_nogo_deval/images/blue_triangle.png'></img>,32,850,test,blue_triangle,go2,32,19,3,,,,,,,-1,-1,1400,0,ITI,poldrack-single-stim,555,665191,0.0-6.3-60.3,go_nogo_deval,459,,<div></div>,32,1400,test,,,,,,,,,,,,-1,-1,500,0,fixation,poldrack-single-stim,556,665692,0.0-6.3-61.3,go_nogo_deval,459,,<div class = centerbox><div class = fixation>+</div></div>,none,500,test,,,,,,,,,,,,407,32,850,0,stim,poldrack-single-stim,557,666543,0.0-6.3-62.3,go_nogo_deval,459,,<img class = center src='/static/experiments/go_nogo_deval/images/red_circle.png'></img>,32,850,test,red_circle,go1,32,20,3,,,,,,,-1,-1,1400,0,ITI,poldrack-single-stim,558,667945,0.0-6.3-63.3,go_nogo_deval,459,,<div></div>,32,1400,test,,,,,,,,,,,,-1,-1,500,0,fixation,poldrack-single-stim,559,668447,0.0-6.3-64.3,go_nogo_deval,459,,<div class = centerbox><div class = fixation>+</div></div>,none,500,test,,,,,,,,,,,,330,32,850,0,stim,poldrack-single-stim,560,669299,0.0-6.3-65.3,go_nogo_deval,459,,<img class = center src='/static/experiments/go_nogo_deval/images/blue_triangle.png'></img>,32,850,test,blue_triangle,go2,32,21,3,,,,,,,-1,-1,1400,0,ITI,poldrack-single-stim,561,670700,0.0-6.3-66.3,go_nogo_deval,459,,<div></div>,32,1400,test,,,,,,,,,,,,-1,-1,500,0,fixation,poldrack-single-stim,562,671201,0.0-6.3-67.3,go_nogo_deval,459,,<div class = centerbox><div class = fixation>+</div></div>,none,500,test,,,,,,,,,,,,-1,-1,850,0,stim,poldrack-single-stim,563,672052,0.0-6.3-68.3,go_nogo_deval,459,,<img class = center src='/static/experiments/go_nogo_deval/images/purple_pentagon.png'></img>,32,850,test,purple_pentagon,nogo2,-1,22,3,,,,,,,-1,-1,1400,0,ITI,poldrack-single-stim,564,673454,0.0-6.3-69.3,go_nogo_deval,459,,<div></div>,32,1400,test,,,,,,,,,,,,-1,-1,500,0,fixation,poldrack-single-stim,565,673955,0.0-6.3-70.3,go_nogo_deval,459,,<div class = centerbox><div class = fixation>+</div></div>,none,500,test,,,,,,,,,,,,312,32,850,0,stim,poldrack-single-stim,566,674807,0.0-6.3-71.3,go_nogo_deval,459,,<img class = center src='/static/experiments/go_nogo_deval/images/blue_triangle.png'></img>,32,850,test,blue_triangle,go2,32,23,3,,,,,,,-1,-1,1400,0,ITI,poldrack-single-stim,567,676208,0.0-6.3-72.3,go_nogo_deval,459,,<div></div>,32,1400,test,,,,,,,,,,,,-1,-1,500,0,fixation,poldrack-single-stim,568,676710,0.0-6.3-73.3,go_nogo_deval,459,,<div class = centerbox><div class = fixation>+</div></div>,none,500,test,,,,,,,,,,,,359,32,850,0,stim,poldrack-single-stim,569,677561,0.0-6.3-74.3,go_nogo_deval,459,,<img class = center src='/static/experiments/go_nogo_deval/images/red_circle.png'></img>,32,850,test,red_circle,go1,32,24,3,,,,,,,-1,-1,1400,0,ITI,poldrack-single-stim,570,678962,0.0-6.3-75.3,go_nogo_deval,459,,<div></div>,32,1400,test,,,,,,,,,,,,-1,-1,500,0,fixation,poldrack-single-stim,571,679464,0.0-6.3-76.3,go_nogo_deval,459,,<div class = centerbox><div class = fixation>+</div></div>,none,500,test,,,,,,,,,,,