text,rt,key_press,block_duration,timing_post_trial,trial_id,trial_type,trial_index,time_elapsed,internal_node_id,exp_id,subject_ID,view_history,stimulus,possible_responses,stim_duration,exp_stage,stim,go_nogo_type,correct_response,current_trial,current_block,chosenStim,chosenCond,stimLeft,cond_left,stimRight,cond_right<div class = centerbox><p class = center-block-text>Welcome to the task!</p><p class = center-block-text>Press<strong> enter</strong> to continue.</p></div>,3244,13,3244,0,welcome,poldrack-text,0,3245,0.0-0.0,go_nogo_deval,444,,,,,,,,,,,,,,,,,49412,,,,instruction,poldrack-instructions,1,52659,0.0-1.0,go_nogo_deval,444,"[{""page_index"":0,""viewing_time"":3287},{""page_index"":1,""viewing_time"":46124}]",,,,,,,,,,,,,,,,6148,13,6148,0,stop_intro_phase1,poldrack-single-stim,2,59810,0.0-2.0,go_nogo_deval,444,,"<div class = centerbox><p class = block-text>We will now start the practice for the experiment.<br><br>For these trials, you must press the <strong>spacebar </strong> or have <strong>no response</strong> depending on the shape of the stimulus.  Make sure to respond as quickly and accurately as possible to the shape. <br><br> The responses for each shape are as follows: <ul list-text><li>rhombus: spacebar</li><li>pentagon: spacebar</li><li>triangle: no response</li><li>circle: no response</li></ul></p><p class = block-text>Remember these rules before you proceed.</p><p class = block-text>Press <strong> enter</strong> to begin.</p></div>",13,6148,,,,,,,,,,,,,1731,13,1731,0,practice-no-stop-feedback,poldrack-single-stim,3,61542,0.0-3.0-0.0,go_nogo_deval,444,,<div class = centerbox><p class = block-text>We will now start with a practice session. In this practice concentrate on responding quickly and accurately to each stimuli unless it requires no response.</p><p class = block-text>Press enter to continue.</p></div>,13,1731,,,,,,,,,,,,,-1,-1,500,0,prompt_fixation,poldrack-single-stim,4,62045,0.0-3.0-1.0,go_nogo_deval,444,,<div class = centerbox><div class = fixation>+</div></div>,none,500,practice,,,,,,,,,,,,-1,-1,850,0,stim,poldrack-single-stim,5,62898,0.0-3.0-2.0,go_nogo_deval,444,,<img class = center src='/static/experiments/go_nogo_deval/images/green_triangle.png'></img>,32,850,practice,green_triangle,nogo1,-1,0,0,,,,,,,-1,-1,1400,0,ITI,poldrack-single-stim,6,64301,0.0-3.0-3.0,go_nogo_deval,444,,<div></div>,32,1400,practice,,,,,,,,,,,,-1,-1,500,0,prompt_fixation,poldrack-single-stim,7,64803,0.0-3.0-4.0,go_nogo_deval,444,,<div class = centerbox><div class = fixation>+</div></div>,none,500,practice,,,,,,,,,,,,710,32,850,0,stim,poldrack-single-stim,8,65655,0.0-3.0-5.0,go_nogo_deval,444,,<img class = center src='/static/experiments/go_nogo_deval/images/red_pentagon.png'></img>,32,850,practice,red_pentagon,go2,32,1,0,,,,,,,-1,-1,1400,0,ITI,poldrack-single-stim,9,67056,0.0-3.0-6.0,go_nogo_deval,444,,<div></div>,32,1400,practice,,,,,,,,,,,,-1,-1,500,0,prompt_fixation,poldrack-single-stim,10,67558,0.0-3.0-7.0,go_nogo_deval,444,,<div class = centerbox><div class = fixation>+</div></div>,none,500,practice,,,,,,,,,,,,676,32,850,0,stim,poldrack-single-stim,11,68410,0.0-3.0-8.0,go_nogo_deval,444,,<img class = center src='/static/experiments/go_nogo_deval/images/blue_rhombus.png'></img>,32,850,practice,blue_rhombus,go1,32,2,0,,,,,,,-1,-1,1400,0,ITI,poldrack-single-stim,12,69812,0.0-3.0-9.0,go_nogo_deval,444,,<div></div>,32,1400,practice,,,,,,,,,,,,-1,-1,500,0,prompt_fixation,poldrack-single-stim,13,70314,0.0-3.0-10.0,go_nogo_deval,444,,<div class = centerbox><div class = fixation>+</div></div>,none,500,practice,,,,,,,,,,,,463,32,850,0,stim,poldrack-single-stim,14,71166,0.0-3.0-11.0,go_nogo_deval,444,,<img class = center src='/static/experiments/go_nogo_deval/images/red_pentagon.png'></img>,32,850,practice,red_pentagon,go2,32,3,0,,,,,,,-1,-1,1400,0,ITI,poldrack-single-stim,15,72568,0.0-3.0-12.0,go_nogo_deval,444,,<div></div>,32,1400,practice,,,,,,,,,,,,-1,-1,500,0,prompt_fixation,poldrack-single-stim,16,73069,0.0-3.0-13.0,go_nogo_deval,444,,<div class = centerbox><div class = fixation>+</div></div>,none,500,practice,,,,,,,,,,,,487,32,850,0,stim,poldrack-single-stim,17,73921,0.0-3.0-14.0,go_nogo_deval,444,,<img class = center src='/static/experiments/go_nogo_deval/images/red_pentagon.png'></img>,32,850,practice,red_pentagon,go2,32,4,0,,,,,,,-1,-1,1400,0,ITI,poldrack-single-stim,18,75323,0.0-3.0-15.0,go_nogo_deval,444,,<div></div>,32,1400,practice,,,,,,,,,,,,-1,-1,500,0,prompt_fixation,poldrack-single-stim,19,75824,0.0-3.0-16.0,go_nogo_deval,444,,<div class = centerbox><div class = fixation>+</div></div>,none,500,practice,,,,,,,,,,,,343,32,850,0,stim,poldrack-single-stim,20,76676,0.0-3.0-17.0,go_nogo_deval,444,,<img class = center src='/static/experiments/go_nogo_deval/images/red_pentagon.png'></img>,32,850,practice,red_pentagon,go2,32,5,0,,,,,,,-1,-1,1400,0,ITI,poldrack-single-stim,21,78078,0.0-3.0-18.0,go_nogo_deval,444,,<div></div>,32,1400,practice,,,,,,,,,,,,-1,-1,500,0,prompt_fixation,poldrack-single-stim,22,78581,0.0-3.0-19.0,go_nogo_deval,444,,<div class = centerbox><div class = fixation>+</div></div>,none,500,practice,,,,,,,,,,,,-1,-1,850,0,stim,poldrack-single-stim,23,79432,0.0-3.0-20.0,go_nogo_deval,444,,<img class = center src='/static/experiments/go_nogo_deval/images/purple_circle.png'></img>,32,850,practice,purple_circle,nogo2,-1,6,0,,,,,,,-1,-1,1400,0,ITI,poldrack-single-stim,24,80834,0.0-3.0-21.0,go_nogo_deval,444,,<div></div>,32,1400,practice,,,,,,,,,,,,-1,-1,500,0,prompt_fixation,poldrack-single-stim,25,81335,0.0-3.0-22.0,go_nogo_deval,444,,<div class = centerbox><div class = fixation>+</div></div>,none,500,practice,,,,,,,,,,,,468,32,850,0,stim,poldrack-single-stim,26,82187,0.0-3.0-23.0,go_nogo_deval,444,,<img class = center src='/static/experiments/go_nogo_deval/images/blue_rhombus.png'></img>,32,850,practice,blue_rhombus,go1,32,7,0,,,,,,,-1,-1,1400,0,ITI,poldrack-single-stim,27,83588,0.0-3.0-24.0,go_nogo_deval,444,,<div></div>,32,1400,practice,,,,,,,,,,,,-1,-1,500,0,prompt_fixation,poldrack-single-stim,28,84090,0.0-3.0-25.0,go_nogo_deval,444,,<div class = centerbox><div class = fixation>+</div></div>,none,500,practice,,,,,,,,,,,,-1,-1,850,0,stim,poldrack-single-stim,29,84942,0.0-3.0-26.0,go_nogo_deval,444,,<img class = center src='/static/experiments/go_nogo_deval/images/green_triangle.png'></img>,32,850,practice,green_triangle,nogo1,-1,8,0,,,,,,,-1,-1,1400,0,ITI,poldrack-single-stim,30,86344,0.0-3.0-27.0,go_nogo_deval,444,,<div></div>,32,1400,practice,,,,,,,,,,,,-1,-1,500,0,prompt_fixation,poldrack-single-stim,31,86846,0.0-3.0-28.0,go_nogo_deval,444,,<div class = centerbox><div class = fixation>+</div></div>,none,500,practice,,,,,,,,,,,,-1,-1,850,0,stim,poldrack-single-stim,32,87698,0.0-3.0-29.0,go_nogo_deval,444,,<img class = center src='/static/experiments/go_nogo_deval/images/green_triangle.png'></img>,32,850,practice,green_triangle,nogo1,-1,9,0,,,,,,,-1,-1,1400,0,ITI,poldrack-single-stim,33,89100,0.0-3.0-30.0,go_nogo_deval,444,,<div></div>,32,1400,practice,,,,,,,,,,,,-1,-1,500,0,prompt_fixation,poldrack-single-stim,34,89601,0.0-3.0-31.0,go_nogo_deval,444,,<div class = centerbox><div class = fixation>+</div></div>,none,500,practice,,,,,,,,,,,,528,32,850,0,stim,poldrack-single-stim,35,90453,0.0-3.0-32.0,go_nogo_deval,444,,<img class = center src='/static/experiments/go_nogo_deval/images/blue_rhombus.png'></img>,32,850,practice,blue_rhombus,go1,32,10,0,,,,,,,-1,-1,1400,0,ITI,poldrack-single-stim,36,91854,0.0-3.0-33.0,go_nogo_deval,444,,<div></div>,32,1400,practice,,,,,,,,,,,,-1,-1,500,0,prompt_fixation,poldrack-single-stim,37,92356,0.0-3.0-34.0,go_nogo_deval,444,,<div class = centerbox><div class = fixation>+</div></div>,none,500,practice,,,,,,,,,,,,483,32,850,0,stim,poldrack-single-stim,38,93208,0.0-3.0-35.0,go_nogo_deval,444,,<img class = center src='/static/experiments/go_nogo_deval/images/red_pentagon.png'></img>,32,850,practice,red_pentagon,go2,32,11,0,,,,,,,-1,-1,1400,0,ITI,poldrack-single-stim,39,94610,0.0-3.0-36.0,go_nogo_deval,444,,<div></div>,32,1400,practice,,,,,,,,,,,,-1,-1,500,0,prompt_fixation,poldrack-single-stim,40,95112,0.0-3.0-37.0,go_nogo_deval,444,,<div class = centerbox><div class = fixation>+</div></div>,none,500,practice,,,,,,,,,,,,360,32,850,0,stim,poldrack-single-stim,41,95964,0.0-3.0-38.0,go_nogo_deval,444,,<img class = center src='/static/experiments/go_nogo_deval/images/red_pentagon.png'></img>,32,850,practice,red_pentagon,go2,32,12,0,,,,,,,-1,-1,1400,0,ITI,poldrack-single-stim,42,97365,0.0-3.0-39.0,go_nogo_deval,444,,<div></div>,32,1400,practice,,,,,,,,,,,,-1,-1,500,0,prompt_fixation,poldrack-single-stim,43,97866,0.0-3.0-40.0,go_nogo_deval,444,,<div class = centerbox><div class = fixation>+</div></div>,none,500,practice,,,,,,,,,,,,519,32,850,0,stim,poldrack-single-stim,44,98718,0.0-3.0-41.0,go_nogo_deval,444,,<img class = center src='/static/experiments/go_nogo_deval/images/blue_rhombus.png'></img>,32,850,practice,blue_rhombus,go1,32,13,0,,,,,,,-1,-1,1400,0,ITI,poldrack-single-stim,45,100120,0.0-3.0-42.0,go_nogo_deval,444,,<div></div>,32,1400,practice,,,,,,,,,,,,-1,-1,500,0,prompt_fixation,poldrack-single-stim,46,100622,0.0-3.0-43.0,go_nogo_deval,444,,<div class = centerbox><div class = fixation>+</div></div>,none,500,practice,,,,,,,,,,,,362,32,850,0,stim,poldrack-single-stim,47,101474,0.0-3.0-44.0,go_nogo_deval,444,,<img class = center src='/static/experiments/go_nogo_deval/images/blue_rhombus.png'></img>,32,850,practice,blue_rhombus,go1,32,14,0,,,,,,,-1,-1,1400,0,ITI,poldrack-single-stim,48,102876,0.0-3.0-45.0,go_nogo_deval,444,,<div></div>,32,1400,practice,,,,,,,,,,,,-1,-1,500,0,prompt_fixation,poldrack-single-stim,49,103377,0.0-3.0-46.0,go_nogo_deval,444,,<div class = centerbox><div class = fixation>+</div></div>,none,500,practice,,,,,,,,,,,,-1,-1,850,0,stim,poldrack-single-stim,50,104230,0.0-3.0-47.0,go_nogo_deval,444,,<img class = center src='/static/experiments/go_nogo_deval/images/purple_circle.png'></img>,32,850,practice,purple_circle,nogo2,-1,15,0,,,,,,,-1,-1,1400,0,ITI,poldrack-single-stim,51,105632,0.0-3.0-48.0,go_nogo_deval,444,,<div></div>,32,1400,practice,,,,,,,,,,,,-1,-1,500,0,prompt_fixation,poldrack-single-stim,52,106133,0.0-3.0-49.0,go_nogo_deval,444,,<div class = centerbox><div class = fixation>+</div></div>,none,500,practice,,,,,,,,,,,,-1,-1,850,0,stim,poldrack-single-stim,53,106985,0.0-3.0-50.0,go_nogo_deval,444,,<img class = center src='/static/experiments/go_nogo_deval/images/purple_circle.png'></img>,32,850,practice,purple_circle,nogo2,-1,16,0,,,,,,,-1,-1,1400,0,ITI,poldrack-single-stim,54,108386,0.0-3.0-51.0,go_nogo_deval,444,,<div></div>,32,1400,practice,,,,,,,,,,,,-1,-1,500,0,prompt_fixation,poldrack-single-stim,55,108888,0.0-3.0-52.0,go_nogo_deval,444,,<div class = centerbox><div class = fixation>+</div></div>,none,500,practice,,,,,,,,,,,,523,32,850,0,stim,poldrack-single-stim,56,109740,0.0-3.0-53.0,go_nogo_deval,444,,<img class = center src='/static/experiments/go_nogo_deval/images/blue_rhombus.png'></img>,32,850,practice,blue_rhombus,go1,32,17,0,,,,,,,-1,-1,1400,0,ITI,poldrack-single-stim,57,111142,0.0-3.0-54.0,go_nogo_deval,444,,<div></div>,32,1400,practice,,,,,,,,,,,,5163,13,5163,0,practice-no-stop-feedback,poldrack-single-stim,58,116308,0.0-4.0,go_nogo_deval,444,,<div class = centerbox><p class = block-text><br>Please take this time to read your feedback and to take a short break! Press enter to continue</p><p class = block-text><strong>Average reaction time:  494 ms. Accuracy: 100%</strong></p><p class = block-text>Done with this practice.</p></div>,13,5163,,,,,,,,,,,,,37350,13,37350,0,main_stop_intro_phase3,poldrack-single-stim,59,153658,0.0-5.0,go_nogo_deval,444,,"<div class = centerbox><p class = block-text>We will now start the main phase of the experiment.<br><br>These trials are the same as the trials that you have just completed. <br><br>The rules for each shape are as follows:  <br><ul list-text><li>rhombus: spacebar</li><li>pentagon: spacebar</li><li>triangle: no response</li><li>circle: no response</li></ul></p><p class = block-text>Remember these rules before you proceed, as they will no longer be presented during the trial.</p><p class = block-text>Press <strong> enter</strong> to begin.</p></div>",13,37350,,,,,,,,,,,,,1630,13,1630,0,practice-no-stop-feedback,poldrack-single-stim,60,155289,0.0-6.0-0.0,go_nogo_deval,444,,"<div class = centerbox><p class = block-text>We will now start with a test session. In this test, concentrate on responding quickly and accurately to each stimuli unless it requires no response.</p><p class = block-text>Press enter to continue.</p></div>",13,1630,,,,,,,,,,,,,-1,-1,500,0,fixation,poldrack-single-stim,61,155791,0.0-6.0-1.0,go_nogo_deval,444,,<div class = centerbox><div class = fixation>+</div></div>,none,500,test,,,,,,,,,,,,476,32,850,0,stim,poldrack-single-stim,62,156643,0.0-6.0-2.0,go_nogo_deval,444,,<img class = center src='/static/experiments/go_nogo_deval/images/red_pentagon.png'></img>,32,850,test,red_pentagon,go2,32,0,0,,,,,,,-1,-1,1400,0,ITI,poldrack-single-stim,63,158044,0.0-6.0-3.0,go_nogo_deval,444,,<div></div>,32,1400,test,,,,,,,,,,,,-1,-1,500,0,fixation,poldrack-single-stim,64,158547,0.0-6.0-4.0,go_nogo_deval,444,,<div class = centerbox><div class = fixation>+</div></div>,none,500,test,,,,,,,,,,,,432,32,850,0,stim,poldrack-single-stim,65,159398,0.0-6.0-5.0,go_nogo_deval,444,,<img class = center src='/static/experiments/go_nogo_deval/images/blue_rhombus.png'></img>,32,850,test,blue_rhombus,go1,32,1,0,,,,,,,-1,-1,1400,0,ITI,poldrack-single-stim,66,160800,0.0-6.0-6.0,go_nogo_deval,444,,<div></div>,32,1400,test,,,,,,,,,,,,-1,-1,500,0,fixation,poldrack-single-stim,67,161302,0.0-6.0-7.0,go_nogo_deval,444,,<div class = centerbox><div class = fixation>+</div></div>,none,500,test,,,,,,,,,,,,410,32,850,0,stim,poldrack-single-stim,68,162153,0.0-6.0-8.0,go_nogo_deval,444,,<img class = center src='/static/experiments/go_nogo_deval/images/blue_rhombus.png'></img>,32,850,test,blue_rhombus,go1,32,2,0,,,,,,,-1,-1,1400,0,ITI,poldrack-single-stim,69,163554,0.0-6.0-9.0,go_nogo_deval,444,,<div></div>,32,1400,test,,,,,,,,,,,,-1,-1,500,0,fixation,poldrack-single-stim,70,164055,0.0-6.0-10.0,go_nogo_deval,444,,<div class = centerbox><div class = fixation>+</div></div>,none,500,test,,,,,,,,,,,,515,32,850,0,stim,poldrack-single-stim,71,164906,0.0-6.0-11.0,go_nogo_deval,444,,<img class = center src='/static/experiments/go_nogo_deval/images/red_pentagon.png'></img>,32,850,test,red_pentagon,go2,32,3,0,,,,,,,-1,-1,1400,0,ITI,poldrack-single-stim,72,166308,0.0-6.0-12.0,go_nogo_deval,444,,<div></div>,32,1400,test,,,,,,,,,,,,-1,-1,500,0,fixation,poldrack-single-stim,73,166810,0.0-6.0-13.0,go_nogo_deval,444,,<div class = centerbox><div class = fixation>+</div></div>,none,500,test,,,,,,,,,,,,414,32,850,0,stim,poldrack-single-stim,74,167662,0.0-6.0-14.0,go_nogo_deval,444,,<img class = center src='/static/experiments/go_nogo_deval/images/blue_rhombus.png'></img>,32,850,test,blue_rhombus,go1,32,4,0,,,,,,,-1,-1,1400,0,ITI,poldrack-single-stim,75,169063,0.0-6.0-15.0,go_nogo_deval,444,,<div></div>,32,1400,test,,,,,,,,,,,,-1,-1,500,0,fixation,poldrack-single-stim,76,169565,0.0-6.0-16.0,go_nogo_deval,444,,<div class = centerbox><div class = fixation>+</div></div>,none,500,test,,,,,,,,,,,,506,32,850,0,stim,poldrack-single-stim,77,170416,0.0-6.0-17.0,go_nogo_deval,444,,<img class = center src='/static/experiments/go_nogo_deval/images/red_pentagon.png'></img>,32,850,test,red_pentagon,go2,32,5,0,,,,,,,-1,-1,1400,0,ITI,poldrack-single-stim,78,171818,0.0-6.0-18.0,go_nogo_deval,444,,<div></div>,32,1400,test,,,,,,,,,,,,-1,-1,500,0,fixation,poldrack-single-stim,79,172319,0.0-6.0-19.0,go_nogo_deval,444,,<div class = centerbox><div class = fixation>+</div></div>,none,500,test,,,,,,,,,,,,340,32,850,0,stim,poldrack-single-stim,80,173171,0.0-6.0-20.0,go_nogo_deval,444,,<img class = center src='/static/experiments/go_nogo_deval/images/red_pentagon.png'></img>,32,850,test,red_pentagon,go2,32,6,0,,,,,,,-1,-1,1400,0,ITI,poldrack-single-stim,81,174573,0.0-6.0-21.0,go_nogo_deval,444,,<div></div>,32,1400,test,,,,,,,,,,,,-1,-1,500,0,fixation,poldrack-single-stim,82,175074,0.0-6.0-22.0,go_nogo_deval,444,,<div class = centerbox><div class = fixation>+</div></div>,none,500,test,,,,,,,,,,,,397,32,850,0,stim,poldrack-single-stim,83,175926,0.0-6.0-23.0,go_nogo_deval,444,,<img class = center src='/static/experiments/go_nogo_deval/images/red_pentagon.png'></img>,32,850,test,red_pentagon,go2,32,7,0,,,,,,,-1,-1,1400,0,ITI,poldrack-single-stim,84,177328,0.0-6.0-24.0,go_nogo_deval,444,,<div></div>,32,1400,test,,,,,,,,,,,,-1,-1,500,0,fixation,poldrack-single-stim,85,177831,0.0-6.0-25.0,go_nogo_deval,444,,<div class = centerbox><div class = fixation>+</div></div>,none,500,test,,,,,,,,,,,,-1,-1,850,0,stim,poldrack-single-stim,86,178683,0.0-6.0-26.0,go_nogo_deval,444,,<img class = center src='/static/experiments/go_nogo_deval/images/purple_circle.png'></img>,32,850,test,purple_circle,nogo2,-1,8,0,,,,,,,-1,-1,1400,0,ITI,poldrack-single-stim,87,180084,0.0-6.0-27.0,go_nogo_deval,444,,<div></div>,32,1400,test,,,,,,,,,,,,-1,-1,500,0,fixation,poldrack-single-stim,88,180585,0.0-6.0-28.0,go_nogo_deval,444,,<div class = centerbox><div class = fixation>+</div></div>,none,500,test,,,,,,,,,,,,342,32,850,0,stim,poldrack-single-stim,89,181437,0.0-6.0-29.0,go_nogo_deval,444,,<img class = center src='/static/experiments/go_nogo_deval/images/red_pentagon.png'></img>,32,850,test,red_pentagon,go2,32,9,0,,,,,,,-1,-1,1400,0,ITI,poldrack-single-stim,90,182839,0.0-6.0-30.0,go_nogo_deval,444,,<div></div>,32,1400,test,,,,,,,,,,,,-1,-1,500,0,fixation,poldrack-single-stim,91,183341,0.0-6.0-31.0,go_nogo_deval,444,,<div class = centerbox><div class = fixation>+</div></div>,none,500,test,,,,,,,,,,,,410,32,850,0,stim,poldrack-single-stim,92,184193,0.0-6.0-32.0,go_nogo_deval,444,,<img class = center src='/static/experiments/go_nogo_deval/images/blue_rhombus.png'></img>,32,850,test,blue_rhombus,go1,32,10,0,,,,,,,-1,-1,1400,0,ITI,poldrack-single-stim,93,185594,0.0-6.0-33.0,go_nogo_deval,444,,<div></div>,32,1400,test,,,,,,,,,,,,-1,-1,500,0,fixation,poldrack-single-stim,94,186096,0.0-6.0-34.0,go_nogo_deval,444,,<div class = centerbox><div class = fixation>+</div></div>,none,500,test,,,,,,,,,,,,-1,-1,850,0,stim,poldrack-single-stim,95,186947,0.0-6.0-35.0,go_nogo_deval,444,,<img class = center src='/static/experiments/go_nogo_deval/images/purple_circle.png'></img>,32,850,test,purple_circle,nogo2,-1,11,0,,,,,,,-1,-1,1400,0,ITI,poldrack-single-stim,96,188349,0.0-6.0-36.0,go_nogo_deval,444,,<div></div>,32,1400,test,,,,,,,,,,,,-1,-1,500,0,fixation,poldrack-single-stim,97,188850,0.0-6.0-37.0,go_nogo_deval,444,,<div class = centerbox><div class = fixation>+</div></div>,none,500,test,,,,,,,,,,,,-1,-1,850,0,stim,poldrack-single-stim,98,189702,0.0-6.0-38.0,go_nogo_deval,444,,<img class = center src='/static/experiments/go_nogo_deval/images/green_triangle.png'></img>,32,850,test,green_triangle,nogo1,-1,12,0,,,,,,,-1,-1,1400,0,ITI,poldrack-single-stim,99,191103,0.0-6.0-39.0,go_nogo_deval,444,,<div></div>,32,1400,test,,,,,,,,,,,,-1,-1,500,0,fixation,poldrack-single-stim,100,191605,0.0-6.0-40.0,go_nogo_deval,444,,<div class = centerbox><div class = fixation>+</div></div>,none,500,test,,,,,,,,,,,,-1,-1,850,0,stim,poldrack-single-stim,101,192457,0.0-6.0-41.0,go_nogo_deval,444,,<img class = center src='/static/experiments/go_nogo_deval/images/green_triangle.png'></img>,32,850,test,green_triangle,nogo1,-1,13,0,,,,,,,-1,-1,1400,0,ITI,poldrack-single-stim,102,193859,0.0-6.0-42.0,go_nogo_deval,444,,<div></div>,32,1400,test,,,,,,,,,,,,-1,-1,500,0,fixation,poldrack-single-stim,103,194361,0.0-6.0-43.0,go_nogo_deval,444,,<div class = centerbox><div class = fixation>+</div></div>,none,500,test,,,,,,,,,,,,292,32,850,0,stim,poldrack-single-stim,104,195213,0.0-6.0-44.0,go_nogo_deval,444,,<img class = center src='/static/experiments/go_nogo_deval/images/red_pentagon.png'></img>,32,850,test,red_pentagon,go2,32,14,0,,,,,,,-1,-1,1400,0,ITI,poldrack-single-stim,105,196614,0.0-6.0-45.0,go_nogo_deval,444,,<div></div>,32,1400,test,,,,,,,,,,,,-1,-1,500,0,fixation,poldrack-single-stim,106,197115,0.0-6.0-46.0,go_nogo_deval,444,,<div class = centerbox><div class = fixation>+</div></div>,none,500,test,,,,,,,,,,,,360,32,850,0,stim,poldrack-single-stim,107,197967,0.0-6.0-47.0,go_nogo_deval,444,,<img class = center src='/static/experiments/go_nogo_deval/images/red_pentagon.png'></img>,32,850,test,red_pentagon,go2,32,15,0,,,,,,,-1,-1,1400,0,ITI,poldrack-single-stim,108,199369,0.0-6.0-48.0,go_nogo_deval,444,,<div></div>,32,1400,test,,,,,,,,,,,,-1,-1,500,0,fixation,poldrack-single-stim,109,199871,0.0-6.0-49.0,go_nogo_deval,444,,<div class = centerbox><div class = fixation>+</div></div>,none,500,test,,,,,,,,,,,,362,32,850,0,stim,poldrack-single-stim,110,200723,0.0-6.0-50.0,go_nogo_deval,444,,<img class = center src='/static/experiments/go_nogo_deval/images/red_pentagon.png'></img>,32,850,test,red_pentagon,go2,32,16,0,,,,,,,-1,-1,1400,0,ITI,poldrack-single-stim,111,202125,0.0-6.0-51.0,go_nogo_deval,444,,<div></div>,32,1400,test,,,,,,,,,,,,-1,-1,500,0,fixation,poldrack-single-stim,112,202626,0.0-6.0-52.0,go_nogo_deval,444,,<div class = centerbox><div class = fixation>+</div></div>,none,500,test,,,,,,,,,,,,352,32,850,0,stim,poldrack-single-stim,113,203477,0.0-6.0-53.0,go_nogo_deval,444,,<img class = center src='/static/experiments/go_nogo_deval/images/red_pentagon.png'></img>,32,850,test,red_pentagon,go2,32,17,0,,,,,,,-1,-1,1400,0,ITI,poldrack-single-stim,114,204878,0.0-6.0-54.0,go_nogo_deval,444,,<div></div>,32,1400,test,,,,,,,,,,,,-1,-1,500,0,fixation,poldrack-single-stim,115,205380,0.0-6.0-55.0,go_nogo_deval,444,,<div class = centerbox><div class = fixation>+</div></div>,none,500,test,,,,,,,,,,,,512,32,850,0,stim,poldrack-single-stim,116,206230,0.0-6.0-56.0,go_nogo_deval,444,,<img class = center src='/static/experiments/go_nogo_deval/images/blue_rhombus.png'></img>,32,850,test,blue_rhombus,go1,32,18,0,,,,,,,-1,-1,1400,0,ITI,poldrack-single-stim,117,207632,0.0-6.0-57.0,go_nogo_deval,444,,<div></div>,32,1400,test,,,,,,,,,,,,-1,-1,500,0,fixation,poldrack-single-stim,118,208134,0.0-6.0-58.0,go_nogo_deval,444,,<div class = centerbox><div class = fixation>+</div></div>,none,500,test,,,,,,,,,,,,604,32,850,0,stim,poldrack-single-stim,119,208986,0.0-6.0-59.0,go_nogo_deval,444,,<img class = center src='/static/experiments/go_nogo_deval/images/blue_rhombus.png'></img>,32,850,test,blue_rhombus,go1,32,19,0,,,,,,,-1,-1,1400,0,ITI,poldrack-single-stim,120,210388,0.0-6.0-60.0,go_nogo_deval,444,,<div></div>,32,1400,test,,,,,,,,,,,,-1,-1,500,0,fixation,poldrack-single-stim,121,210890,0.0-6.0-61.0,go_nogo_deval,444,,<div class = centerbox><div class = fixation>+</div></div>,none,500,test,,,,,,,,,,,,379,32,850,0,stim,poldrack-single-stim,122,211741,0.0-6.0-62.0,go_nogo_deval,444,,<img class = center src='/static/experiments/go_nogo_deval/images/blue_rhombus.png'></img>,32,850,test,blue_rhombus,go1,32,20,0,,,,,,,-1,-1,1400,0,ITI,poldrack-single-stim,123,213143,0.0-6.0-63.0,go_nogo_deval,444,,<div></div>,32,1400,test,,,,,,,,,,,,-1,-1,500,0,fixation,poldrack-single-stim,124,213644,0.0-6.0-64.0,go_nogo_deval,444,,<div class = centerbox><div class = fixation>+</div></div>,none,500,test,,,,,,,,,,,,-1,-1,850,0,stim,poldrack-single-stim,125,214496,0.0-6.0-65.0,go_nogo_deval,444,,<img class = center src='/static/experiments/go_nogo_deval/images/green_triangle.png'></img>,32,850,test,green_triangle,nogo1,-1,21,0,,,,,,,-1,-1,1400,0,ITI,poldrack-single-stim,126,215897,0.0-6.0-66.0,go_nogo_deval,444,,<div></div>,32,1400,test,,,,,,,,,,,,-1,-1,500,0,fixation,poldrack-single-stim,127,216399,0.0-6.0-67.0,go_nogo_deval,444,,<div class = centerbox><div class = fixation>+</div></div>,none,500,test,,,,,,,,,,,,-1,-1,850,0,stim,poldrack-single-stim,128,217250,0.0-6.0-68.0,go_nogo_deval,444,,<img class = center src='/static/experiments/go_nogo_deval/images/green_triangle.png'></img>,32,850,test,green_triangle,nogo1,-1,22,0,,,,,,,-1,-1,1400,0,ITI,poldrack-single-stim,129,218651,0.0-6.0-69.0,go_nogo_deval,444,,<div></div>,32,1400,test,,,,,,,,,,,,-1,-1,500,0,fixation,poldrack-single-stim,130,219152,0.0-6.0-70.0,go_nogo_deval,444,,<div class = centerbox><div class = fixation>+</div></div>,none,500,test,,,,,,,,,,,,499,32,850,0,stim,poldrack-single-stim,131,220004,0.0-6.0-71.0,go_nogo_deval,444,,<img class = center src='/static/experiments/go_nogo_deval/images/blue_rhombus.png'></img>,32,850,test,blue_rhombus,go1,32,23,0,,,,,,,-1,-1,1400,0,ITI,poldrack-single-stim,132,221406,0.0-6.0-72.0,go_nogo_deval,444,,<div></div>,32,1400,test,,,,,,,,,,,,-1,-1,500,0,fixation,poldrack-single-stim,133,221908,0.0-6.0-73.0,go_nogo_deval,444,,<div class = centerbox><div class = fixation>+</div></div>,none,500,test,,,,,,,,,,,,464,32,850,0,stim,poldrack-single-stim,134,222760,0.0-6.0-74.0,go_nogo_deval,444,,<img class = center src='/static/experiments/go_nogo_deval/images/blue_rhombus.png'></img>,32,850,test,blue_rhombus,go1,32,24,0,,,,,,,-1,-1,1400,0,ITI,poldrack-single-stim,135,224161,0.0-6.0-75.0,go_nogo_deval,444,,<div></div>,32,1400,test,,,,,,,,,,,,-1,-1,500,0,fixation,poldrack-single-stim,136,224663,0.0-6.0-76.0,go_nogo_deval,444,,<div class = centerbox><div class = fixation>+</div></div>,none,500,test,,,,,,,,,,,,365,32,850,0,stim,poldrack-single-stim,137,225515,0.0-6.0-77.0,go_nogo_deval,444,,<img class = center src='/static/experiments/go_nogo_deval/images/blue_rhombus.png'></img>,32,850,test,blue_rhombus,go1,32,25,0,,,,,,,-1,-1,1400,0,ITI,poldrack-single-stim,138,226917,0.0-6.0-78.0,go_nogo_deval,444,,<div></div>,32,1400,test,,,,,,,,,,,,-1,-1,500,0,fixation,poldrack-single-stim,139,227419,0.0-6.0-79.0,go_nogo_deval,444,,<div class = centerbox><div class = fixation>+</div></div>,none,500,test,,,,,,,,,,,,455,32,850,0,stim,poldrack-single-stim,140,228271,0.0-6.0-80.0,go_nogo_deval,444,,<img class = center src='/static/experiments/go_nogo_deval/images/red_pentagon.png'></img>,32,850,test,red_pentagon,go2,32,26,0,,,,,,,-1,-1,1400,0,ITI,poldrack-single-stim,141,229673,0.0-6.0-81.0,go_nogo_deval,444,,<div></div>,32,1400,test,,,,,,,,,,,,-1,-1,500,0,fixation,poldrack-single-stim,142,230174,0.0-6.0-82.0,go_nogo_deval,444,,<div class = centerbox><div class = fixation>+</div></div>,none,500,test,,,,,,,,,,,,446,32,850,0,stim,poldrack-single-stim,143,231026,0.0-6.0-83.0,go_nogo_deval,444,,<img class = center src='/static/experiments/go_nogo_deval/images/blue_rhombus.png'></img>,32,850,test,blue_rhombus,go1,32,27,0,,,,,,,-1,-1,1400,0,ITI,poldrack-single-stim,144,232427,0.0-6.0-84.0,go_nogo_deval,444,,<div></div>,32,1400,test,,,,,,,,,,,,-1,-1,500,0,fixation,poldrack-single-stim,145,232929,0.0-6.0-85.0,go_nogo_deval,444,,<div class = centerbox><div class = fixation>+</div></div>,none,500,test,,,,,,,,,,,,379,32,850,0,stim,poldrack-single-stim,146,233781,0.0-6.0-86.0,go_nogo_deval,444,,<img class = center src='/static/experiments/go_nogo_deval/images/red_pentagon.png'></img>,32,850,test,red_pentagon,go2,32,28,0,,,,,,,-1,-1,1400,0,ITI,poldrack-single-stim,147,235182,0.0-6.0-87.0,go_nogo_deval,444,,<div></div>,32,1400,test,,,,,,,,,,,,-1,-1,500,0,fixation,poldrack-single-stim,148,235683,0.0-6.0-88.0,go_nogo_deval,444,,<div class = centerbox><div class = fixation>+</div></div>,none,500,test,,,,,,,,,,,,-1,-1,850,0,stim,poldrack-single-stim,149,236535,0.0-6.0-89.0,go_nogo_deval,444,,<img class = center src='/static/experiments/go_nogo_deval/images/purple_circle.png'></img>,32,850,test,purple_circle,nogo2,-1,29,0,,,,,,,-1,-1,1400,0,ITI,poldrack-single-stim,150,237937,0.0-6.0-90.0,go_nogo_deval,444,,<div></div>,32,1400,test,,,,,,,,,,,,-1,-1,500,0,fixation,poldrack-single-stim,151,238439,0.0-6.0-91.0,go_nogo_deval,444,,<div class = centerbox><div class = fixation>+</div></div>,none,500,test,,,,,,,,,,,,539,32,850,0,stim,poldrack-single-stim,152,239291,0.0-6.0-92.0,go_nogo_deval,444,,<img class = center src='/static/experiments/go_nogo_deval/images/red_pentagon.png'></img>,32,850,test,red_pentagon,go2,32,30,0,,,,,,,-1,-1,1400,0,ITI,poldrack-single-stim,153,240693,0.0-6.0-93.0,go_nogo_deval,444,,<div></div>,32,1400,test,,,,,,,,,,,,-1,-1,500,0,fixation,poldrack-single-stim,154,241195,0.0-6.0-94.0,go_nogo_deval,444,,<div class = centerbox><div class = fixation>+</div></div>,none,500,test,,,,,,,,,,,,-1,-1,850,0,stim,poldrack-single-stim,155,242046,0.0-6.0-95.0,go_nogo_deval,444,,<img class = center src='/static/experiments/go_nogo_deval/images/purple_circle.png'></img>,32,850,test,purple_circle,nogo2,-1,31,0,,,,,,,-1,-1,1400,0,ITI,poldrack-single-stim,156,243447,0.0-6.0-96.0,go_nogo_deval,444,,<div></div>,32,1400,test,,,,,,,,,,,,-1,-1,500,0,fixation,poldrack-single-stim,157,243949,0.0-6.0-97.0,go_nogo_deval,444,,<div class = centerbox><div class = fixation>+</div></div>,none,500,test,,,,,,,,,,,,406,32,850,0,stim,poldrack-single-stim,158,244801,0.0-6.0-98.0,go_nogo_deval,444,,<img class = center src='/static/experiments/go_nogo_deval/images/blue_rhombus.png'></img>,32,850,test,blue_rhombus,go1,32,32,0,,,,,,,-1,-1,1400,0,ITI,poldrack-single-stim,159,246202,0.0-6.0-99.0,go_nogo_deval,444,,<div></div>,32,1400,test,,,,,,,,,,,,-1,-1,500,0,fixation,poldrack-single-stim,160,246703,0.0-6.0-100.0,go_nogo_deval,444,,<div class = centerbox><div class = fixation>+</div></div>,none,500,test,,,,,,,,,,,,-1,-1,850,0,stim,poldrack-single-stim,161,247554,0.0-6.0-101.0,go_nogo_deval,444,,<img class = center src='/static/experiments/go_nogo_deval/images/purple_circle.png'></img>,32,850,test,purple_circle,nogo2,-1,33,0,,,,,,,-1,-1,1400,0,ITI,poldrack-single-stim,162,248956,0.0-6.0-102.0,go_nogo_deval,444,,<div></div>,32,1400,test,,,,,,,,,,,,-1,-1,500,0,fixation,poldrack-single-stim,163,249458,0.0-6.0-103.0,go_nogo_deval,444,,<div class = centerbox><div class = fixation>+</div></div>,none,500,test,,,,,,,,,,,,-1,-1,850,0,stim,poldrack-single-stim,164,250310,0.0-6.0-104.0,go_nogo_deval,444,,<img class = center src='/static/experiments/go_nogo_deval/images/purple_circle.png'></img>,32,850,test,purple_circle,nogo2,-1,34,0,,,,,,,-1,-1,1400,0,ITI,poldrack-single-stim,165,251710,0.0-6.0-105.0,go_nogo_deval,444,,<div></div>,32,1400,test,,,,,,,,,,,,-1,-1,500,0,fixation,poldrack-single-stim,166,252212,0.0-6.0-106.0,go_nogo_deval,444,,<div class = centerbox><div class = fixation>+</div></div>,none,500,test,,,,,,,,,,,,-1,-1,850,0,stim,poldrack-single-stim,167,253064,0.0-6.0-107.0,go_nogo_deval,444,,<img class = center src='/static/experiments/go_nogo_deval/images/purple_circle.png'></img>,32,850,test,purple_circle,nogo2,-1,35,0,,,,,,,-1,-1,1400,0,ITI,poldrack-single-stim,168,254466,0.0-6.0-108.0,go_nogo_deval,444,,<div></div>,32,1400,test,,,,,,,,,,,,-1,-1,500,0,fixation,poldrack-single-stim,169,254967,0.0-6.0-109.0,go_nogo_deval,444,,<div class = centerbox><div class = fixation>+</div></div>,none,500,test,,,,,,,,,,,,358,32,850,0,stim,poldrack-single-stim,170,255819,0.0-6.0-110.0,go_nogo_deval,444,,<img class = center src='/static/experiments/go_nogo_deval/images/green_triangle.png'></img>,32,850,test,green_triangle,nogo1,-1,36,0,,,,,,,-1,-1,1400,0,ITI,poldrack-single-stim,171,257219,0.0-6.0-111.0,go_nogo_deval,444,,<div></div>,32,1400,test,,,,,,,,,,,,-1,-1,500,0,fixation,poldrack-single-stim,172,257721,0.0-6.0-112.0,go_nogo_deval,444,,<div class = centerbox><div class = fixation>+</div></div>,none,500,test,,,,,,,,,,,,-1,-1,850,0,stim,poldrack-single-stim,173,258573,0.0-6.0-113.0,go_nogo_deval,444,,<img class = center src='/static/experiments/go_nogo_deval/images/green_triangle.png'></img>,32,850,test,green_triangle,nogo1,-1,37,0,,,,,,,-1,-1,1400,0,ITI,poldrack-single-stim,174,259975,0.0-6.0-114.0,go_nogo_deval,444,,<div></div>,32,1400,test,,,,,,,,,,,,-1,-1,500,0,fixation,poldrack-single-stim,175,260476,0.0-6.0-115.0,go_nogo_deval,444,,<div class = centerbox><div class = fixation>+</div></div>,none,500,test,,,,,,,,,,,,462,32,850,0,stim,poldrack-single-stim,176,261327,0.0-6.0-116.0,go_nogo_deval,444,,<img class = center src='/static/experiments/go_nogo_deval/images/blue_rhombus.png'></img>,32,850,test,blue_rhombus,go1,32,38,0,,,,,,,-1,-1,1400,0,ITI,poldrack-single-stim,177,262728,0.0-6.0-117.0,go_nogo_deval,444,,<div></div>,32,1400,test,,,,,,,,,,,,-1,-1,500,0,fixation,poldrack-single-stim,178,263230,0.0-6.0-118.0,go_nogo_deval,444,,<div class = centerbox><div class = fixation>+</div></div>,none,500,test,,,,,,,,,,,,-1,-1,850,0,stim,poldrack-single-stim,179,264082,0.0-6.0-119.0,go_nogo_deval,444,,<img class = center src='/static/experiments/go_nogo_deval/images/green_triangle.png'></img>,32,850,test,green_triangle,nogo1,-1,39,0,,,,,,,-1,-1,1400,0,ITI,poldrack-single-stim,180,265482,0.0-6.0-120.0,go_nogo_deval,444,,<div></div>,32,1400,test,,,,,,,,,,,,-1,-1,500,0,fixation,poldrack-single-stim,181,265984,0.0-6.0-121.0,go_nogo_deval,444,,<div class = centerbox><div class = fixation>+</div></div>,none,500,test,,,,,,,,,,,,422,32,850,0,stim,poldrack-single-stim,182,266836,0.0-6.0-122.0,go_nogo_deval,444,,<img class = center src='/static/experiments/go_nogo_deval/images/blue_rhombus.png'></img>,32,850,test,blue_rhombus,go1,32,40,0,,,,,,,-1,-1,1400,0,ITI,poldrack-single-stim,183,268238,0.0-6.0-123.0,go_nogo_deval,444,,<div></div>,32,1400,test,,,,,,,,,,,,-1,-1,500,0,fixation,poldrack-single-stim,184,268740,0.0-6.0-124.0,go_nogo_deval,444,,<div class = centerbox><div class = fixation>+</div></div>,none,500,test,,,,,,,,,,,,456,32,850,0,stim,poldrack-single-stim,185,269591,0.0-6.0-125.0,go_nogo_deval,444,,<img class = center src='/static/experiments/go_nogo_deval/images/red_pentagon.png'></img>,32,850,test,red_pentagon,go2,32,41,0,,,,,,,-1,-1,1400,0,ITI,poldrack-single-stim,186,270993,0.0-6.0-126.0,go_nogo_deval,444,,<div></div>,32,1400,test,,,,,,,,,,,,-1,-1,500,0,fixation,poldrack-single-stim,187,271495,0.0-6.0-127.0,go_nogo_deval,444,,<div class = centerbox><div class = fixation>+</div></div>,none,500,test,,,,,,,,,,,,502,32,850,0,stim,poldrack-single-stim,188,272346,0.0-6.0-128.0,go_nogo_deval,444,,<img class = center src='/static/experiments/go_nogo_deval/images/blue_rhombus.png'></img>,32,850,test,blue_rhombus,go1,32,42,0,,,,,,,-1,-1,1400,0,ITI,poldrack-single-stim,189,273748,0.0-6.0-129.0,go_nogo_deval,444,,<div></div>,32,1400,test,,,,,,,,,,,,-1,-1,500,0,fixation,poldrack-single-stim,190,274250,0.0-6.0-130.0,go_nogo_deval,444,,<div class = centerbox><div class = fixation>+</div></div>,none,500,test,,,,,,,,,,,,-1,-1,850,0,stim,poldrack-single-stim,191,275102,0.0-6.0-131.0,go_nogo_deval,444,,<img class = center src='/static/experiments/go_nogo_deval/images/purple_circle.png'></img>,32,850,test,purple_circle,nogo2,-1,43,0,,,,,,,-1,-1,1400,0,ITI,poldrack-single-stim,192,276502,0.0-6.0-132.0,go_nogo_deval,444,,<div></div>,32,1400,test,,,,,,,,,,,,-1,-1,500,0,fixation,poldrack-single-stim,193,277004,0.0-6.0-133.0,go_nogo_deval,444,,<div class = centerbox><div class = fixation>+</div></div>,none,500,test,,,,,,,,,,,,584,32,850,0,stim,poldrack-single-stim,194,277855,0.0-6.0-134.0,go_nogo_deval,444,,<img class = center src='/static/experiments/go_nogo_deval/images/blue_rhombus.png'></img>,32,850,test,blue_rhombus,go1,32,44,0,,,,,,,-1,-1,1400,0,ITI,poldrack-single-stim,195,279257,0.0-6.0-135.0,go_nogo_deval,444,,<div></div>,32,1400,test,,,,,,,,,,,,-1,-1,500,0,fixation,poldrack-single-stim,196,279759,0.0-6.0-136.0,go_nogo_deval,444,,<div class = centerbox><div class = fixation>+</div></div>,none,500,test,,,,,,,,,,,,383,32,850,0,stim,poldrack-single-stim,197,280610,0.0-6.0-137.0,go_nogo_deval,444,,<img class = center src='/static/experiments/go_nogo_deval/images/red_pentagon.png'></img>,32,850,test,red_pentagon,go2,32,45,0,,,,,,,-1,-1,1400,0,ITI,poldrack-single-stim,198,282011,0.0-6.0-138.0,go_nogo_deval,444,,<div></div>,32,1400,test,,,,,,,,,,,,-1,-1,500,0,fixation,poldrack-single-stim,199,282512,0.0-6.0-139.0,go_nogo_deval,444,,<div class = centerbox><div class = fixation>+</div></div>,none,500,test,,,,,,,,,,,,-1,-1,850,0,stim,poldrack-single-stim,200,283364,0.0-6.0-140.0,go_nogo_deval,444,,<img class = center src='/static/experiments/go_nogo_deval/images/green_triangle.png'></img>,32,850,test,green_triangle,nogo1,-1,46,0,,,,,,,-1,-1,1400,0,ITI,poldrack-single-stim,201,284765,0.0-6.0-141.0,go_nogo_deval,444,,<div></div>,32,1400,test,,,,,,,,,,,,-1,-1,500,0,fixation,poldrack-single-stim,202,285267,0.0-6.0-142.0,go_nogo_deval,444,,<div class = centerbox><div class = fixation>+</div></div>,none,500,test,,,,,,,,,,,,433,32,850,0,stim,poldrack-single-stim,203,286119,0.0-6.0-143.0,go_nogo_deval,444,,<img class = center src='/static/experiments/go_nogo_deval/images/red_pentagon.png'></img>,32,850,test,red_pentagon,go2,32,47,0,,,,,,,-1,-1,1400,0,ITI,poldrack-single-stim,204,287520,0.0-6.0-144.0,go_nogo_deval,444,,<div></div>,32,1400,test,,,,,,,,,,,,5456,13,5456,0,practice-no-stop-feedback,poldrack-single-stim,205,292979,0.0-6.1-0.1,go_nogo_deval,444,,<div class = centerbox><p class = block-text><br>Please take this time to read your feedback and to take a short break! Press enter to continue</p><p class = block-text><strong>Average reaction time:  432 ms. Accuracy: 98%</strong></p></div>,13,5456,,,,,,,,,,,,,-1,-1,500,0,fixation,poldrack-single-stim,206,293481,0.0-6.1-1.1,go_nogo_deval,444,,<div class = centerbox><div class = fixation>+</div></div>,none,500,test,,,,,,,,,,,,712,32,850,0,stim,poldrack-single-stim,207,294333,0.0-6.1-2.1,go_nogo_deval,444,,<img class = center src='/static/experiments/go_nogo_deval/images/blue_rhombus.png'></img>,32,850,test,blue_rhombus,go1,32,0,1,,,,,,,-1,-1,1400,0,ITI,poldrack-single-stim,208,295735,0.0-6.1-3.1,go_nogo_deval,444,,<div></div>,32,1400,test,,,,,,,,,,,,-1,-1,500,0,fixation,poldrack-single-stim,209,296236,0.0-6.1-4.1,go_nogo_deval,444,,<div class = centerbox><div class = fixation>+</div></div>,none,500,test,,,,,,,,,,,,-1,-1,850,0,stim,poldrack-single-stim,210,297088,0.0-6.1-5.1,go_nogo_deval,444,,<img class = center src='/static/experiments/go_nogo_deval/images/green_triangle.png'></img>,32,850,test,green_triangle,nogo1,-1,1,1,,,,,,,-1,-1,1400,0,ITI,poldrack-single-stim,211,298489,0.0-6.1-6.1,go_nogo_deval,444,,<div></div>,32,1400,test,,,,,,,,,,,,-1,-1,500,0,fixation,poldrack-single-stim,212,298991,0.0-6.1-7.1,go_nogo_deval,444,,<div class = centerbox><div class = fixation>+</div></div>,none,500,test,,,,,,,,,,,,-1,-1,850,0,stim,poldrack-single-stim,213,299843,0.0-6.1-8.1,go_nogo_deval,444,,<img class = center src='/static/experiments/go_nogo_deval/images/green_triangle.png'></img>,32,850,test,green_triangle,nogo1,-1,2,1,,,,,,,-1,-1,1400,0,ITI,poldrack-single-stim,214,301245,0.0-6.1-9.1,go_nogo_deval,444,,<div></div>,32,1400,test,,,,,,,,,,,,-1,-1,500,0,fixation,poldrack-single-stim,215,301747,0.0-6.1-10.1,go_nogo_deval,444,,<div class = centerbox><div class = fixation>+</div></div>,none,500,test,,,,,,,,,,,,400,32,850,0,stim,poldrack-single-stim,216,302599,0.0-6.1-11.1,go_nogo_deval,444,,<img class = center src='/static/experiments/go_nogo_deval/images/purple_circle.png'></img>,32,850,test,purple_circle,nogo2,-1,3,1,,,,,,,-1,-1,1400,0,ITI,poldrack-single-stim,217,303999,0.0-6.1-12.1,go_nogo_deval,444,,<div></div>,32,1400,test,,,,,,,,,,,,-1,-1,500,0,fixation,poldrack-single-stim,218,304501,0.0-6.1-13.1,go_nogo_deval,444,,<div class = centerbox><div class = fixation>+</div></div>,none,500,test,,,,,,,,,,,,-1,-1,850,0,stim,poldrack-single-stim,219,305353,0.0-6.1-14.1,go_nogo_deval,444,,<img class = center src='/static/experiments/go_nogo_deval/images/purple_circle.png'></img>,32,850,test,purple_circle,nogo2,-1,4,1,,,,,,,-1,-1,1400,0,ITI,poldrack-single-stim,220,306754,0.0-6.1-15.1,go_nogo_deval,444,,<div></div>,32,1400,test,,,,,,,,,,,,-1,-1,500,0,fixation,poldrack-single-stim,221,307256,0.0-6.1-16.1,go_nogo_deval,444,,<div class = centerbox><div class = fixation>+</div></div>,none,500,test,,,,,,,,,,,,461,32,850,0,stim,poldrack-single-stim,222,308108,0.0-6.1-17.1,go_nogo_deval,444,,<img class = center src='/static/experiments/go_nogo_deval/images/blue_rhombus.png'></img>,32,850,test,blue_rhombus,go1,32,5,1,,,,,,,-1,-1,1400,0,ITI,poldrack-single-stim,223,309510,0.0-6.1-18.1,go_nogo_deval,444,,<div></div>,32,1400,test,,,,,,,,,,,,-1,-1,500,0,fixation,poldrack-single-stim,224,310011,0.0-6.1-19.1,go_nogo_deval,444,,<div class = centerbox><div class = fixation>+</div></div>,none,500,test,,,,,,,,,,,,472,32,850,0,stim,poldrack-single-stim,225,310863,0.0-6.1-20.1,go_nogo_deval,444,,<img class = center src='/static/experiments/go_nogo_deval/images/red_pentagon.png'></img>,32,850,test,red_pentagon,go2,32,6,1,,,,,,,-1,-1,1400,0,ITI,poldrack-single-stim,226,312265,0.0-6.1-21.1,go_nogo_deval,444,,<div></div>,32,1400,test,,,,,,,,,,,,-1,-1,500,0,fixation,poldrack-single-stim,227,312767,0.0-6.1-22.1,go_nogo_deval,444,,<div class = centerbox><div class = fixation>+</div></div>,none,500,test,,,,,,,,,,,,484,32,850,0,stim,poldrack-single-stim,228,313618,0.0-6.1-23.1,go_nogo_deval,444,,<img class = center src='/static/experiments/go_nogo_deval/images/blue_rhombus.png'></img>,32,850,test,blue_rhombus,go1,32,7,1,,,,,,,-1,-1,1400,0,ITI,poldrack-single-stim,229,315020,0.0-6.1-24.1,go_nogo_deval,444,,<div></div>,32,1400,test,,,,,,,,,,,,-1,-1,500,0,fixation,poldrack-single-stim,230,315521,0.0-6.1-25.1,go_nogo_deval,444,,<div class = centerbox><div class = fixation>+</div></div>,none,500,test,,,,,,,,,,,,464,32,850,0,stim,poldrack-single-stim,231,316373,0.0-6.1-26.1,go_nogo_deval,444,,<img class = center src='/static/experiments/go_nogo_deval/images/red_pentagon.png'></img>,32,850,test,red_pentagon,go2,32,8,1,,,,,,,-1,-1,1400,0,ITI,poldrack-single-stim,232,317774,0.0-6.1-27.1,go_nogo_deval,444,,<div></div>,32,1400,test,,,,,,,,,,,,-1,-1,500,0,fixation,poldrack-single-stim,233,318276,0.0-6.1-28.1,go_nogo_deval,444,,<div class = centerbox><div class = fixation>+</div></div>,none,500,test,,,,,,,,,,,,556,32,850,0,stim,poldrack-single-stim,234,319127,0.0-6.1-29.1,go_nogo_deval,444,,<img class = center src='/static/experiments/go_nogo_deval/images/blue_rhombus.png'></img>,32,850,test,blue_rhombus,go1,32,9,1,,,,,,,-1,-1,1400,0,ITI,poldrack-single-stim,235,320528,0.0-6.1-30.1,go_nogo_deval,444,,<div></div>,32,1400,test,,,,,,,,,,,,-1,-1,500,0,fixation,poldrack-single-stim,236,321030,0.0-6.1-31.1,go_nogo_deval,444,,<div class = centerbox><div class = fixation>+</div></div>,none,500,test,,,,,,,,,,,,534,32,850,0,stim,poldrack-single-stim,237,321882,0.0-6.1-32.1,go_nogo_deval,444,,<img class = center src='/static/experiments/go_nogo_deval/images/red_pentagon.png'></img>,32,850,test,red_pentagon,go2,32,10,1,,,,,,,-1,-1,1400,0,ITI,poldrack-single-stim,238,323284,0.0-6.1-33.1,go_nogo_deval,444,,<div></div>,32,1400,test,,,,,,,,,,,,-1,-1,500,0,fixation,poldrack-single-stim,239,323786,0.0-6.1-34.1,go_nogo_deval,444,,<div class = centerbox><div class = fixation>+</div></div>,none,500,test,,,,,,,,,,,,445,32,850,0,stim,poldrack-single-stim,240,324638,0.0-6.1-35.1,go_nogo_deval,444,,<img class = center src='/static/experiments/go_nogo_deval/images/blue_rhombus.png'></img>,32,850,test,blue_rhombus,go1,32,11,1,,,,,,,-1,-1,1400,0,ITI,poldrack-single-stim,241,326040,0.0-6.1-36.1,go_nogo_deval,444,,<div></div>,32,1400,test,,,,,,,,,,,,-1,-1,500,0,fixation,poldrack-single-stim,242,326542,0.0-6.1-37.1,go_nogo_deval,444,,<div class = centerbox><div class = fixation>+</div></div>,none,500,test,,,,,,,,,,,,513,32,850,0,stim,poldrack-single-stim,243,327392,0.0-6.1-38.1,go_nogo_deval,444,,<img class = center src='/static/experiments/go_nogo_deval/images/red_pentagon.png'></img>,32,850,test,red_pentagon,go2,32,12,1,,,,,,,-1,-1,1400,0,ITI,poldrack-single-stim,244,328794,0.0-6.1-39.1,go_nogo_deval,444,,<div></div>,32,1400,test,,,,,,,,,,,,-1,-1,500,0,fixation,poldrack-single-stim,245,329296,0.0-6.1-40.1,go_nogo_deval,444,,<div class = centerbox><div class = fixation>+</div></div>,none,500,test,,,,,,,,,,,,516,32,850,0,stim,poldrack-single-stim,246,330148,0.0-6.1-41.1,go_nogo_deval,444,,<img class = center src='/static/experiments/go_nogo_deval/images/red_pentagon.png'></img>,32,850,test,red_pentagon,go2,32,13,1,,,,,,,-1,-1,1400,0,ITI,poldrack-single-stim,247,331549,0.0-6.1-42.1,go_nogo_deval,444,,<div></div>,32,1400,test,,,,,,,,,,,,-1,-1,500,0,fixation,poldrack-single-stim,248,332050,0.0-6.1-43.1,go_nogo_deval,444,,<div class = centerbox><div class = fixation>+</div></div>,none,500,test,,,,,,,,,,,,505,32,850,0,stim,poldrack-single-stim,249,332901,0.0-6.1-44.1,go_nogo_deval,444,,<img class = center src='/static/experiments/go_nogo_deval/images/blue_rhombus.png'></img>,32,850,test,blue_rhombus,go1,32,14,1,,,,,,,-1,-1,1400,0,ITI,poldrack-single-stim,250,334303,0.0-6.1-45.1,go_nogo_deval,444,,<div></div>,32,1400,test,,,,,,,,,,,,-1,-1,500,0,fixation,poldrack-single-stim,251,334805,0.0-6.1-46.1,go_nogo_deval,444,,<div class = centerbox><div class = fixation>+</div></div>,none,500,test,,,,,,,,,,,,-1,-1,850,0,stim,poldrack-single-stim,252,335657,0.0-6.1-47.1,go_nogo_deval,444,,<img class = center src='/static/experiments/go_nogo_deval/images/green_triangle.png'></img>,32,850,test,green_triangle,nogo1,-1,15,1,,,,,,,-1,-1,1400,0,ITI,poldrack-single-stim,253,337057,0.0-6.1-48.1,go_nogo_deval,444,,<div></div>,32,1400,test,,,,,,,,,,,,-1,-1,500,0,fixation,poldrack-single-stim,254,337559,0.0-6.1-49.1,go_nogo_deval,444,,<div class = centerbox><div class = fixation>+</div></div>,none,500,test,,,,,,,,,,,,-1,-1,850,0,stim,poldrack-single-stim,255,338410,0.0-6.1-50.1,go_nogo_deval,444,,<img class = center src='/static/experiments/go_nogo_deval/images/purple_circle.png'></img>,32,850,test,purple_circle,nogo2,-1,16,1,,,,,,,-1,-1,1400,0,ITI,poldrack-single-stim,256,339812,0.0-6.1-51.1,go_nogo_deval,444,,<div></div>,32,1400,test,,,,,,,,,,,,-1,-1,500,0,fixation,poldrack-single-stim,257,340314,0.0-6.1-52.1,go_nogo_deval,444,,<div class = centerbox><div class = fixation>+</div></div>,none,500,test,,,,,,,,,,,,489,32,850,0,stim,poldrack-single-stim,258,341165,0.0-6.1-53.1,go_nogo_deval,444,,<img class = center src='/static/experiments/go_nogo_deval/images/red_pentagon.png'></img>,32,850,test,red_pentagon,go2,32,17,1,,,,,,,-1,-1,1400,0,ITI,poldrack-single-stim,259,342566,0.0-6.1-54.1,go_nogo_deval,444,,<div></div>,32,1400,test,,,,,,,,,,,,-1,-1,500,0,fixation,poldrack-single-stim,260,343068,0.0-6.1-55.1,go_nogo_deval,444,,<div class = centerbox><div class = fixation>+</div></div>,none,500,test,,,,,,,,,,,,457,32,850,0,stim,poldrack-single-stim,261,343920,0.0-6.1-56.1,go_nogo_deval,444,,<img class = center src='/static/experiments/go_nogo_deval/images/blue_rhombus.png'></img>,32,850,test,blue_rhombus,go1,32,18,1,,,,,,,-1,-1,1400,0,ITI,poldrack-single-stim,262,345323,0.0-6.1-57.1,go_nogo_deval,444,,<div></div>,32,1400,test,,,,,,,,,,,,-1,-1,500,0,fixation,poldrack-single-stim,263,345825,0.0-6.1-58.1,go_nogo_deval,444,,<div class = centerbox><div class = fixation>+</div></div>,none,500,test,,,,,,,,,,,,524,32,850,0,stim,poldrack-single-stim,264,346676,0.0-6.1-59.1,go_nogo_deval,444,,<img class = center src='/static/experiments/go_nogo_deval/images/red_pentagon.png'></img>,32,850,test,red_pentagon,go2,32,19,1,,,,,,,-1,-1,1400,0,ITI,poldrack-single-stim,265,348078,0.0-6.1-60.1,go_nogo_deval,444,,<div></div>,32,1400,test,,,,,,,,,,,,-1,-1,500,0,fixation,poldrack-single-stim,266,348579,0.0-6.1-61.1,go_nogo_deval,444,,<div class = centerbox><div class = fixation>+</div></div>,none,500,test,,,,,,,,,,,,493,32,850,0,stim,poldrack-single-stim,267,349430,0.0-6.1-62.1,go_nogo_deval,444,,<img class = center src='/static/experiments/go_nogo_deval/images/red_pentagon.png'></img>,32,850,test,red_pentagon,go2,32,20,1,,,,,,,-1,-1,1400,0,ITI,poldrack-single-stim,268,350832,0.0-6.1-63.1,go_nogo_deval,444,,<div></div>,32,1400,test,,,,,,,,,,,,-1,-1,500,0,fixation,poldrack-single-stim,269,351334,0.0-6.1-64.1,go_nogo_deval,444,,<div class = centerbox><div class = fixation>+</div></div>,none,500,test,,,,,,,,,,,,528,32,850,0,stim,poldrack-single-stim,270,352185,0.0-6.1-65.1,go_nogo_deval,444,,<img class = center src='/static/experiments/go_nogo_deval/images/blue_rhombus.png'></img>,32,850,test,blue_rhombus,go1,32,21,1,,,,,,,-1,-1,1400,0,ITI,poldrack-single-stim,271,353586,0.0-6.1-66.1,go_nogo_deval,444,,<div></div>,32,1400,test,,,,,,,,,,,,-1,-1,500,0,fixation,poldrack-single-stim,272,354087,0.0-6.1-67.1,go_nogo_deval,444,,<div class = centerbox><div class = fixation>+</div></div>,none,500,test,,,,,,,,,,,,-1,-1,850,0,stim,poldrack-single-stim,273,354940,0.0-6.1-68.1,go_nogo_deval,444,,<img class = center src='/static/experiments/go_nogo_deval/images/purple_circle.png'></img>,32,850,test,purple_circle,nogo2,-1,22,1,,,,,,,-1,-1,1400,0,ITI,poldrack-single-stim,274,356340,0.0-6.1-69.1,go_nogo_deval,444,,<div></div>,32,1400,test,,,,,,,,,,,,-1,-1,500,0,fixation,poldrack-single-stim,275,356842,0.0-6.1-70.1,go_nogo_deval,444,,<div class = centerbox><div class = fixation>+</div></div>,none,500,test,,,,,,,,,,,,441,32,850,0,stim,poldrack-single-stim,276,357694,0.0-6.1-71.1,go_nogo_deval,444,,<img class = center src='/static/experiments/go_nogo_deval/images/red_pentagon.png'></img>,32,850,test,red_pentagon,go2,32,23,1,,,,,,,-1,-1,1400,0,ITI,poldrack-single-stim,277,359096,0.0-6.1-72.1,go_nogo_deval,444,,<div></div>,32,1400,test,,,,,,,,,,,,-1,-1,500,0,fixation,poldrack-single-stim,278,359597,0.0-6.1-73.1,go_nogo_deval,444,,<div class = centerbox><div class = fixation>+</div></div>,none,500,test,,,,,,,,,,,,432,32,850,0,stim,poldrack-single-stim,279,360449,0.0-6.1-74.1,go_nogo_deval,444,,<img class = center src='/static/experiments/go_nogo_deval/images/blue_rhombus.png'></img>,32,850,test,blue_rhombus,go1,32,24,1,,,,,,,-1,-1,1400,0,ITI,poldrack-single-stim,280,361851,0.0-6.1-75.1,go_nogo_deval,444,,<div></div>,32,1400,test,,,,,,,,,,,,-1,-1,500,0,fixation,poldrack-single-stim,281,362353,0.0-6.1-76.1,go_nogo_deval,444,,<div class = centerbox><div class = fixation>+</div></div>,none,500,test,,,,,,,,,,,,-1,-1,850,0,stim,poldrack-single-stim,282,363204,0.0-6.1-77.1,go_nogo_deval,444,,<img class = center src='/static/experiments/go_nogo_deval/images/green_triangle.png'></img>,32,850,test,green_triangle,nogo1,-1,25,1,,,,,,,-1,-1,1400,0,ITI,poldrack-single-stim,283,364606,0.0-6.1-78.1,go_nogo_deval,444,,<div></div>,32,1400,test,,,,,,,,,,,,-1,-1,500,0,fixation,poldrack-single-stim,284,365108,0.0-6.1-79.1,go_nogo_deval,444,,<div class = centerbox><div class = fixation>+</div></div>,none,500,test,,,,,,,,,,,,445,32,850,0,stim,poldrack-single-stim,285,365959,0.0-6.1-80.1,go_nogo_deval,444,,<img class = center src='/static/experiments/go_nogo_deval/images/blue_rhombus.png'></img>,32,850,test,blue_rhombus,go1,32,26,1,,,,,,,-1,-1,1400,0,ITI,poldrack-single-stim,286,367361,0.0-6.1-81.1,go_nogo_deval,444,,<div></div>,32,1400,test,,,,,,,,,,,,-1,-1,500,0,fixation,poldrack-single-stim,287,367863,0.0-6.1-82.1,go_nogo_deval,444,,<div class = centerbox><div class = fixation>+</div></div>,none,500,test,,,,,,,,,,,,-1,-1,850,0,stim,poldrack-single-stim,288,368714,0.0-6.1-83.1,go_nogo_deval,444,,<img class = center src='/static/experiments/go_nogo_deval/images/green_triangle.png'></img>,32,850,test,green_triangle,nogo1,-1,27,1,,,,,,,-1,-1,1400,0,ITI,poldrack-single-stim,289,370115,0.0-6.1-84.1,go_nogo_deval,444,,<div></div>,32,1400,test,,,,,,,,,,,,-1,-1,500,0,fixation,poldrack-single-stim,290,370617,0.0-6.1-85.1,go_nogo_deval,444,,<div class = centerbox><div class = fixation>+</div></div>,none,500,test,,,,,,,,,,,,-1,-1,850,0,stim,poldrack-single-stim,291,371468,0.0-6.1-86.1,go_nogo_deval,444,,<img class = center src='/static/experiments/go_nogo_deval/images/green_triangle.png'></img>,32,850,test,green_triangle,nogo1,-1,28,1,,,,,,,-1,-1,1400,0,ITI,poldrack-single-stim,292,372870,0.0-6.1-87.1,go_nogo_deval,444,,<div></div>,32,1400,test,,,,,,,,,,,,-1,-1,500,0,fixation,poldrack-single-stim,293,373372,0.0-6.1-88.1,go_nogo_deval,444,,<div class = centerbox><div class = fixation>+</div></div>,none,500,test,,,,,,,,,,,,450,32,850,0,stim,poldrack-single-stim,294,374223,0.0-6.1-89.1,go_nogo_deval,444,,<img class = center src='/static/experiments/go_nogo_deval/images/red_pentagon.png'></img>,32,850,test,red_pentagon,go2,32,29,1,,,,,,,-1,-1,1400,0,ITI,poldrack-single-stim,295,375625,0.0-6.1-90.1,go_nogo_deval,444,,<div></div>,32,1400,test,,,,,,,,,,,,-1,-1,500,0,fixation,poldrack-single-stim,296,376126,0.0-6.1-91.1,go_nogo_deval,444,,<div class = centerbox><div class = fixation>+</div></div>,none,500,test,,,,,,,,,,,,374,32,850,0,stim,poldrack-single-stim,297,376976,0.0-6.1-92.1,go_nogo_deval,444,,<img class = center src='/static/experiments/go_nogo_deval/images/red_pentagon.png'></img>,32,850,test,red_pentagon,go2,32,30,1,,,,,,,-1,-1,1400,0,ITI,poldrack-single-stim,298,378378,0.0-6.1-93.1,go_nogo_deval,444,,<div></div>,32,1400,test,,,,,,,,,,,,-1,-1,500,0,fixation,poldrack-single-stim,299,378880,0.0-6.1-94.1,go_nogo_deval,444,,<div class = centerbox><div class = fixation>+</div></div>,none,500,test,,,,,,,,,,,,499,32,850,0,stim,poldrack-single-stim,300,379732,0.0-6.1-95.1,go_nogo_deval,444,,<img class = center src='/static/experiments/go_nogo_deval/images/blue_rhombus.png'></img>,32,850,test,blue_rhombus,go1,32,31,1,,,,,,,-1,-1,1400,0,ITI,poldrack-single-stim,301,381134,0.0-6.1-96.1,go_nogo_deval,444,,<div></div>,32,1400,test,,,,,,,,,,,,-1,-1,500,0,fixation,poldrack-single-stim,302,381636,0.0-6.1-97.1,go_nogo_deval,444,,<div class = centerbox><div class = fixation>+</div></div>,none,500,test,,,,,,,,,,,,-1,-1,850,0,stim,poldrack-single-stim,303,382488,0.0-6.1-98.1,go_nogo_deval,444,,<img class = center src='/static/experiments/go_nogo_deval/images/purple_circle.png'></img>,32,850,test,purple_circle,nogo2,-1,32,1,,,,,,,-1,-1,1400,0,ITI,poldrack-single-stim,304,383889,0.0-6.1-99.1,go_nogo_deval,444,,<div></div>,32,1400,test,,,,,,,,,,,,-1,-1,500,0,fixation,poldrack-single-stim,305,384391,0.0-6.1-100.1,go_nogo_deval,444,,<div class = centerbox><div class = fixation>+</div></div>,none,500,test,,,,,,,,,,,,500,32,850,0,stim,poldrack-single-stim,306,385242,0.0-6.1-101.1,go_nogo_deval,444,,<img class = center src='/static/experiments/go_nogo_deval/images/blue_rhombus.png'></img>,32,850,test,blue_rhombus,go1,32,33,1,,,,,,,-1,-1,1400,0,ITI,poldrack-single-stim,307,386643,0.0-6.1-102.1,go_nogo_deval,444,,<div></div>,32,1400,test,,,,,,,,,,,,-1,-1,500,0,fixation,poldrack-single-stim,308,387145,0.0-6.1-103.1,go_nogo_deval,444,,<div class = centerbox><div class = fixation>+</div></div>,none,500,test,,,,,,,,,,,,481,32,850,0,stim,poldrack-single-stim,309,387997,0.0-6.1-104.1,go_nogo_deval,444,,<img class = center src='/static/experiments/go_nogo_deval/images/red_pentagon.png'></img>,32,850,test,red_pentagon,go2,32,34,1,,,,,,,-1,-1,1400,0,ITI,poldrack-single-stim,310,389399,0.0-6.1-105.1,go_nogo_deval,444,,<div></div>,32,1400,test,,,,,,,,,,,,-1,-1,500,0,fixation,poldrack-single-stim,311,389900,0.0-6.1-106.1,go_nogo_deval,444,,<div class = centerbox><div class = fixation>+</div></div>,none,500,test,,,,,,,,,,,,-1,-1,850,0,stim,poldrack-single-stim,312,390751,0.0-6.1-107.1,go_nogo_deval,444,,<img class = center src='/static/experiments/go_nogo_deval/images/green_triangle.png'></img>,32,850,test,green_triangle,nogo1,-1,35,1,,,,,,,-1,-1,1400,0,ITI,poldrack-single-stim,313,392153,0.0-6.1-108.1,go_nogo_deval,444,,<div></div>,32,1400,test,,,,,,,,,,,,-1,-1,500,0,fixation,poldrack-single-stim,314,392655,0.0-6.1-109.1,go_nogo_deval,444,,<div class = centerbox><div class = fixation>+</div></div>,none,500,test,,,,,,,,,,,,382,32,850,0,stim,poldrack-single-stim,315,393507,0.0-6.1-110.1,go_nogo_deval,444,,<img class = center src='/static/experiments/go_nogo_deval/images/blue_rhombus.png'></img>,32,850,test,blue_rhombus,go1,32,36,1,,,,,,,-1,-1,1400,0,ITI,poldrack-single-stim,316,394908,0.0-6.1-111.1,go_nogo_deval,444,,<div></div>,32,1400,test,,,,,,,,,,,,-1,-1,500,0,fixation,poldrack-single-stim,317,395409,0.0-6.1-112.1,go_nogo_deval,444,,<div class = centerbox><div class = fixation>+</div></div>,none,500,test,,,,,,,,,,,,698,32,850,0,stim,poldrack-single-stim,318,396261,0.0-6.1-113.1,go_nogo_deval,444,,<img class = center src='/static/experiments/go_nogo_deval/images/red_pentagon.png'></img>,32,850,test,red_pentagon,go2,32,37,1,,,,,,,-1,-1,1400,0,ITI,poldrack-single-stim,319,397663,0.0-6.1-114.1,go_nogo_deval,444,,<div></div>,32,1400,test,,,,,,,,,,,,-1,-1,500,0,fixation,poldrack-single-stim,320,398164,0.0-6.1-115.1,go_nogo_deval,444,,<div class = centerbox><div class = fixation>+</div></div>,none,500,test,,,,,,,,,,,,-1,-1,850,0,stim,poldrack-single-stim,321,399016,0.0-6.1-116.1,go_nogo_deval,444,,<img class = center src='/static/experiments/go_nogo_deval/images/purple_circle.png'></img>,32,850,test,purple_circle,nogo2,-1,38,1,,,,,,,-1,-1,1400,0,ITI,poldrack-single-stim,322,400417,0.0-6.1-117.1,go_nogo_deval,444,,<div></div>,32,1400,test,,,,,,,,,,,,-1,-1,500,0,fixation,poldrack-single-stim,323,400919,0.0-6.1-118.1,go_nogo_deval,444,,<div class = centerbox><div class = fixation>+</div></div>,none,500,test,,,,,,,,,,,,-1,-1,850,0,stim,poldrack-single-stim,324,401771,0.0-6.1-119.1,go_nogo_deval,444,,<img class = center src='/static/experiments/go_nogo_deval/images/green_triangle.png'></img>,32,850,test,green_triangle,nogo1,-1,39,1,,,,,,,-1,-1,1400,0,ITI,poldrack-single-stim,325,403173,0.0-6.1-120.1,go_nogo_deval,444,,<div></div>,32,1400,test,,,,,,,,,,,,-1,-1,500,0,fixation,poldrack-single-stim,326,403675,0.0-6.1-121.1,go_nogo_deval,444,,<div class = centerbox><div class = fixation>+</div></div>,none,500,test,,,,,,,,,,,,444,32,850,0,stim,poldrack-single-stim,327,404526,0.0-6.1-122.1,go_nogo_deval,444,,<img class = center src='/static/experiments/go_nogo_deval/images/blue_rhombus.png'></img>,32,850,test,blue_rhombus,go1,32,40,1,,,,,,,-1,-1,1400,0,ITI,poldrack-single-stim,328,405927,0.0-6.1-123.1,go_nogo_deval,444,,<div></div>,32,1400,test,,,,,,,,,,,,-1,-1,500,0,fixation,poldrack-single-stim,329,406428,0.0-6.1-124.1,go_nogo_deval,444,,<div class = centerbox><div class = fixation>+</div></div>,none,500,test,,,,,,,,,,,,491,32,850,0,stim,poldrack-single-stim,330,407280,0.0-6.1-125.1,go_nogo_deval,444,,<img class = center src='/static/experiments/go_nogo_deval/images/red_pentagon.png'></img>,32,850,test,red_pentagon,go2,32,41,1,,,,,,,-1,-1,1400,0,ITI,poldrack-single-stim,331,408682,0.0-6.1-126.1,go_nogo_deval,444,,<div></div>,32,1400,test,,,,,,,,,,,,-1,-1,500,0,fixation,poldrack-single-stim,332,409183,0.0-6.1-127.1,go_nogo_deval,444,,<div class = centerbox><div class = fixation>+</div></div>,none,500,test,,,,,,,,,,,,424,32,850,0,stim,poldrack-single-stim,333,410034,0.0-6.1-128.1,go_nogo_deval,444,,<img class = center src='/static/experiments/go_nogo_deval/images/red_pentagon.png'></img>,32,850,test,red_pentagon,go2,32,42,1,,,,,,,-1,-1,1400,0,ITI,poldrack-single-stim,334,411436,0.0-6.1-129.1,go_nogo_deval,444,,<div></div>,32,1400,test,,,,,,,,,,,,-1,-1,500,0,fixation,poldrack-single-stim,335,411939,0.0-6.1-130.1,go_nogo_deval,444,,<div class = centerbox><div class = fixation>+</div></div>,none,500,test,,,,,,,,,,,,-1,-1,850,0,stim,poldrack-single-stim,336,412790,0.0-6.1-131.1,go_nogo_deval,444,,<img class = center src='/static/experiments/go_nogo_deval/images/purple_circle.png'></img>,32,850,test,purple_circle,nogo2,-1,43,1,,,,,,,-1,-1,1400,0,ITI,poldrack-single-stim,337,414192,0.0-6.1-132.1,go_nogo_deval,444,,<div></div>,32,1400,test,,,,,,,,,,,,-1,-1,500,0,fixation,poldrack-single-stim,338,414694,0.0-6.1-133.1,go_nogo_deval,444,,<div class = centerbox><div class = fixation>+</div></div>,none,500,test,,,,,,,,,,,,450,32,850,0,stim,poldrack-single-stim,339,415546,0.0-6.1-134.1,go_nogo_deval,444,,<img class = center src='/static/experiments/go_nogo_deval/images/red_pentagon.png'></img>,32,850,test,red_pentagon,go2,32,44,1,,,,,,,-1,-1,1400,0,ITI,poldrack-single-stim,340,416947,0.0-6.1-135.1,go_nogo_deval,444,,<div></div>,32,1400,test,,,,,,,,,,,,-1,-1,500,0,fixation,poldrack-single-stim,341,417449,0.0-6.1-136.1,go_nogo_deval,444,,<div class = centerbox><div class = fixation>+</div></div>,none,500,test,,,,,,,,,,,,765,32,850,0,stim,poldrack-single-stim,342,418300,0.0-6.1-137.1,go_nogo_deval,444,,<img class = center src='/static/experiments/go_nogo_deval/images/blue_rhombus.png'></img>,32,850,test,blue_rhombus,go1,32,45,1,,,,,,,-1,-1,1400,0,ITI,poldrack-single-stim,343,419702,0.0-6.1-138.1,go_nogo_deval,444,,<div></div>,32,1400,test,,,,,,,,,,,,-1,-1,500,0,fixation,poldrack-single-stim,344,420203,0.0-6.1-139.1,go_nogo_deval,444,,<div class = centerbox><div class = fixation>+</div></div>,none,500,test,,,,,,,,,,,,396,32,850,0,stim,poldrack-single-stim,345,421054,0.0-6.1-140.1,go_nogo_deval,444,,<img class = center src='/static/experiments/go_nogo_deval/images/blue_rhombus.png'></img>,32,850,test,blue_rhombus,go1,32,46,1,,,,,,,-1,-1,1400,0,ITI,poldrack-single-stim,346,422456,0.0-6.1-141.1,go_nogo_deval,444,,<div></div>,32,1400,test,,,,,,,,,,,,-1,-1,500,0,fixation,poldrack-single-stim,347,422958,0.0-6.1-142.1,go_nogo_deval,444,,<div class = centerbox><div class = fixation>+</div></div>,none,500,test,,,,,,,,,,,,-1,-1,850,0,stim,poldrack-single-stim,348,423809,0.0-6.1-143.1,go_nogo_deval,444,,<img class = center src='/static/experiments/go_nogo_deval/images/purple_circle.png'></img>,32,850,test,purple_circle,nogo2,-1,47,1,,,,,,,-1,-1,1400,0,ITI,poldrack-single-stim,349,425211,0.0-6.1-144.1,go_nogo_deval,444,,<div></div>,32,1400,test,,,,,,,,,,,,24456,13,24456,0,practice-no-stop-feedback,poldrack-single-stim,350,449670,0.0-6.2-0.2,go_nogo_deval,444,,<div class = centerbox><p class = block-text><br>Please take this time to read your feedback and to take a short break! Press enter to continue</p><p class = block-text><strong>Average reaction time:  492 ms. Accuracy: 98%</strong></p></div>,13,24456,,,,,,,,,,,,,-1,-1,500,0,fixation,poldrack-single-stim,351,450172,0.0-6.2-1.2,go_nogo_deval,444,,<div class = centerbox><div class = fixation>+</div></div>,none,500,test,,,,,,,,,,,,-1,-1,850,0,stim,poldrack-single-stim,352,451024,0.0-6.2-2.2,go_nogo_deval,444,,<img class = center src='/static/experiments/go_nogo_deval/images/green_triangle.png'></img>,32,850,test,green_triangle,nogo1,-1,0,2,,,,,,,-1,-1,1400,0,ITI,poldrack-single-stim,353,452426,0.0-6.2-3.2,go_nogo_deval,444,,<div></div>,32,1400,test,,,,,,,,,,,,-1,-1,500,0,fixation,poldrack-single-stim,354,452928,0.0-6.2-4.2,go_nogo_deval,444,,<div class = centerbox><div class = fixation>+</div></div>,none,500,test,,,,,,,,,,,,-1,-1,850,0,stim,poldrack-single-stim,355,453779,0.0-6.2-5.2,go_nogo_deval,444,,<img class = center src='/static/experiments/go_nogo_deval/images/green_triangle.png'></img>,32,850,test,green_triangle,nogo1,-1,1,2,,,,,,,-1,-1,1400,0,ITI,poldrack-single-stim,356,455181,0.0-6.2-6.2,go_nogo_deval,444,,<div></div>,32,1400,test,,,,,,,,,,,,-1,-1,500,0,fixation,poldrack-single-stim,357,455682,0.0-6.2-7.2,go_nogo_deval,444,,<div class = centerbox><div class = fixation>+</div></div>,none,500,test,,,,,,,,,,,,579,32,850,0,stim,poldrack-single-stim,358,456534,0.0-6.2-8.2,go_nogo_deval,444,,<img class = center src='/static/experiments/go_nogo_deval/images/purple_circle.png'></img>,32,850,test,purple_circle,nogo2,-1,2,2,,,,,,,-1,-1,1400,0,ITI,poldrack-single-stim,359,457935,0.0-6.2-9.2,go_nogo_deval,444,,<div></div>,32,1400,test,,,,,,,,,,,,-1,-1,500,0,fixation,poldrack-single-stim,360,458437,0.0-6.2-10.2,go_nogo_deval,444,,<div class = centerbox><div class = fixation>+</div></div>,none,500,test,,,,,,,,,,,,762,32,850,0,stim,poldrack-single-stim,361,459288,0.0-6.2-11.2,go_nogo_deval,444,,<img class = center src='/static/experiments/go_nogo_deval/images/blue_rhombus.png'></img>,32,850,test,blue_rhombus,go1,32,3,2,,,,,,,-1,-1,1400,0,ITI,poldrack-single-stim,362,460689,0.0-6.2-12.2,go_nogo_deval,444,,<div></div>,32,1400,test,,,,,,,,,,,,-1,-1,500,0,fixation,poldrack-single-stim,363,461191,0.0-6.2-13.2,go_nogo_deval,444,,<div class = centerbox><div class = fixation>+</div></div>,none,500,test,,,,,,,,,,,,482,32,850,0,stim,poldrack-single-stim,364,462043,0.0-6.2-14.2,go_nogo_deval,444,,<img class = center src='/static/experiments/go_nogo_deval/images/red_pentagon.png'></img>,32,850,test,red_pentagon,go2,32,4,2,,,,,,,-1,-1,1400,0,ITI,poldrack-single-stim,365,463444,0.0-6.2-15.2,go_nogo_deval,444,,<div></div>,32,1400,test,,,,,,,,,,,,-1,-1,500,0,fixation,poldrack-single-stim,366,463945,0.0-6.2-16.2,go_nogo_deval,444,,<div class = centerbox><div class = fixation>+</div></div>,none,500,test,,,,,,,,,,,,-1,-1,850,0,stim,poldrack-single-stim,367,464796,0.0-6.2-17.2,go_nogo_deval,444,,<img class = center src='/static/experiments/go_nogo_deval/images/green_triangle.png'></img>,32,850,test,green_triangle,nogo1,-1,5,2,,,,,,,-1,-1,1400,0,ITI,poldrack-single-stim,368,466197,0.0-6.2-18.2,go_nogo_deval,444,,<div></div>,32,1400,test,,,,,,,,,,,,-1,-1,500,0,fixation,poldrack-single-stim,369,466699,0.0-6.2-19.2,go_nogo_deval,444,,<div class = centerbox><div class = fixation>+</div></div>,none,500,test,,,,,,,,,,,,-1,-1,850,0,stim,poldrack-single-stim,370,467551,0.0-6.2-20.2,go_nogo_deval,444,,<img class = center src='/static/experiments/go_nogo_deval/images/green_triangle.png'></img>,32,850,test,green_triangle,nogo1,-1,6,2,,,,,,,-1,-1,1400,0,ITI,poldrack-single-stim,371,468952,0.0-6.2-21.2,go_nogo_deval,444,,<div></div>,32,1400,test,,,,,,,,,,,,-1,-1,500,0,fixation,poldrack-single-stim,372,469454,0.0-6.2-22.2,go_nogo_deval,444,,<div class = centerbox><div class = fixation>+</div></div>,none,500,test,,,,,,,,,,,,466,32,850,0,stim,poldrack-single-stim,373,470305,0.0-6.2-23.2,go_nogo_deval,444,,<img class = center src='/static/experiments/go_nogo_deval/images/red_pentagon.png'></img>,32,850,test,red_pentagon,go2,32,7,2,,,,,,,-1,-1,1400,0,ITI,poldrack-single-stim,374,471706,0.0-6.2-24.2,go_nogo_deval,444,,<div></div>,32,1400,test,,,,,,,,,,,,-1,-1,500,0,fixation,poldrack-single-stim,375,472207,0.0-6.2-25.2,go_nogo_deval,444,,<div class = centerbox><div class = fixation>+</div></div>,none,500,test,,,,,,,,,,,,503,32,850,0,stim,poldrack-single-stim,376,473059,0.0-6.2-26.2,go_nogo_deval,444,,<img class = center src='/static/experiments/go_nogo_deval/images/blue_rhombus.png'></img>,32,850,test,blue_rhombus,go1,32,8,2,,,,,,,-1,-1,1400,0,ITI,poldrack-single-stim,377,474461,0.0-6.2-27.2,go_nogo_deval,444,,<div></div>,32,1400,test,,,,,,,,,,,,-1,-1,500,0,fixation,poldrack-single-stim,378,474963,0.0-6.2-28.2,go_nogo_deval,444,,<div class = centerbox><div class = fixation>+</div></div>,none,500,test,,,,,,,,,,,,-1,-1,850,0,stim,poldrack-single-stim,379,475814,0.0-6.2-29.2,go_nogo_deval,444,,<img class = center src='/static/experiments/go_nogo_deval/images/purple_circle.png'></img>,32,850,test,purple_circle,nogo2,-1,9,2,,,,,,,-1,-1,1400,0,ITI,poldrack-single-stim,380,477215,0.0-6.2-30.2,go_nogo_deval,444,,<div></div>,32,1400,test,,,,,,,,,,,,-1,-1,500,0,fixation,poldrack-single-stim,381,477717,0.0-6.2-31.2,go_nogo_deval,444,,<div class = centerbox><div class = fixation>+</div></div>,none,500,test,,,,,,,,,,,,448,32,850,0,stim,poldrack-single-stim,382,478569,0.0-6.2-32.2,go_nogo_deval,444,,<img class = center src='/static/experiments/go_nogo_deval/images/blue_rhombus.png'></img>,32,850,test,blue_rhombus,go1,32,10,2,,,,,,,-1,-1,1400,0,ITI,poldrack-single-stim,383,479970,0.0-6.2-33.2,go_nogo_deval,444,,<div></div>,32,1400,test,,,,,,,,,,,,-1,-1,500,0,fixation,poldrack-single-stim,384,480472,0.0-6.2-34.2,go_nogo_deval,444,,<div class = centerbox><div class = fixation>+</div></div>,none,500,test,,,,,,,,,,,,372,32,850,0,stim,poldrack-single-stim,385,481324,0.0-6.2-35.2,go_nogo_deval,444,,<img class = center src='/static/experiments/go_nogo_deval/images/blue_rhombus.png'></img>,32,850,test,blue_rhombus,go1,32,11,2,,,,,,,-1,-1,1400,0,ITI,poldrack-single-stim,386,482726,0.0-6.2-36.2,go_nogo_deval,444,,<div></div>,32,1400,test,,,,,,,,,,,,-1,-1,500,0,fixation,poldrack-single-stim,387,483226,0.0-6.2-37.2,go_nogo_deval,444,,<div class = centerbox><div class = fixation>+</div></div>,none,500,test,,,,,,,,,,,,-1,-1,850,0,stim,poldrack-single-stim,388,484078,0.0-6.2-38.2,go_nogo_deval,444,,<img class = center src='/static/experiments/go_nogo_deval/images/purple_circle.png'></img>,32,850,test,purple_circle,nogo2,-1,12,2,,,,,,,-1,-1,1400,0,ITI,poldrack-single-stim,389,485480,0.0-6.2-39.2,go_nogo_deval,444,,<div></div>,32,1400,test,,,,,,,,,,,,-1,-1,500,0,fixation,poldrack-single-stim,390,485982,0.0-6.2-40.2,go_nogo_deval,444,,<div class = centerbox><div class = fixation>+</div></div>,none,500,test,,,,,,,,,,,,465,32,850,0,stim,poldrack-single-stim,391,486833,0.0-6.2-41.2,go_nogo_deval,444,,<img class = center src='/static/experiments/go_nogo_deval/images/red_pentagon.png'></img>,32,850,test,red_pentagon,go2,32,13,2,,,,,,,-1,-1,1400,0,ITI,poldrack-single-stim,392,488235,0.0-6.2-42.2,go_nogo_deval,444,,<div></div>,32,1400,test,,,,,,,,,,,,-1,-1,500,0,fixation,poldrack-single-stim,393,488737,0.0-6.2-43.2,go_nogo_deval,444,,<div class = centerbox><div class = fixation>+</div></div>,none,500,test,,,,,,,,,,,,555,32,850,0,stim,poldrack-single-stim,394,489588,0.0-6.2-44.2,go_nogo_deval,444,,<img class = center src='/static/experiments/go_nogo_deval/images/blue_rhombus.png'></img>,32,850,test,blue_rhombus,go1,32,14,2,,,,,,,-1,-1,1400,0,ITI,poldrack-single-stim,395,490990,0.0-6.2-45.2,go_nogo_deval,444,,<div></div>,32,1400,test,,,,,,,,,,,,-1,-1,500,0,fixation,poldrack-single-stim,396,491491,0.0-6.2-46.2,go_nogo_deval,444,,<div class = centerbox><div class = fixation>+</div></div>,none,500,test,,,,,,,,,,,,478,32,850,0,stim,poldrack-single-stim,397,492343,0.0-6.2-47.2,go_nogo_deval,444,,<img class = center src='/static/experiments/go_nogo_deval/images/blue_rhombus.png'></img>,32,850,test,blue_rhombus,go1,32,15,2,,,,,,,-1,-1,1400,0,ITI,poldrack-single-stim,398,493744,0.0-6.2-48.2,go_nogo_deval,444,,<div></div>,32,1400,test,,,,,,,,,,,,-1,-1,500,0,fixation,poldrack-single-stim,399,494246,0.0-6.2-49.2,go_nogo_deval,444,,<div class = centerbox><div class = fixation>+</div></div>,none,500,test,,,,,,,,,,,,424,32,850,0,stim,poldrack-single-stim,400,495097,0.0-6.2-50.2,go_nogo_deval,444,,<img class = center src='/static/experiments/go_nogo_deval/images/blue_rhombus.png'></img>,32,850,test,blue_rhombus,go1,32,16,2,,,,,,,-1,-1,1400,0,ITI,poldrack-single-stim,401,496499,0.0-6.2-51.2,go_nogo_deval,444,,<div></div>,32,1400,test,,,,,,,,,,,,-1,-1,500,0,fixation,poldrack-single-stim,402,497001,0.0-6.2-52.2,go_nogo_deval,444,,<div class = centerbox><div class = fixation>+</div></div>,none,500,test,,,,,,,,,,,,482,32,850,0,stim,poldrack-single-stim,403,497853,0.0-6.2-53.2,go_nogo_deval,444,,<img class = center src='/static/experiments/go_nogo_deval/images/red_pentagon.png'></img>,32,850,test,red_pentagon,go2,32,17,2,,,,,,,-1,-1,1400,0,ITI,poldrack-single-stim,404,499255,0.0-6.2-54.2,go_nogo_deval,444,,<div></div>,32,1400,test,,,,,,,,,,,,-1,-1,500,0,fixation,poldrack-single-stim,405,499756,0.0-6.2-55.2,go_nogo_deval,444,,<div class = centerbox><div class = fixation>+</div></div>,none,500,test,,,,,,,,,,,,437,32,850,0,stim,poldrack-single-stim,406,500608,0.0-6.2-56.2,go_nogo_deval,444,,<img class = center src='/static/experiments/go_nogo_deval/images/blue_rhombus.png'></img>,32,850,test,blue_rhombus,go1,32,18,2,,,,,,,-1,-1,1400,0,ITI,poldrack-single-stim,407,502010,0.0-6.2-57.2,go_nogo_deval,444,,<div></div>,32,1400,test,,,,,,,,,,,,-1,-1,500,0,fixation,poldrack-single-stim,408,502512,0.0-6.2-58.2,go_nogo_deval,444,,<div class = centerbox><div class = fixation>+</div></div>,none,500,test,,,,,,,,,,,,371,32,850,0,stim,poldrack-single-stim,409,503363,0.0-6.2-59.2,go_nogo_deval,444,,<img class = center src='/static/experiments/go_nogo_deval/images/red_pentagon.png'></img>,32,850,test,red_pentagon,go2,32,19,2,,,,,,,-1,-1,1400,0,ITI,poldrack-single-stim,410,504765,0.0-6.2-60.2,go_nogo_deval,444,,<div></div>,32,1400,test,,,,,,,,,,,,-1,-1,500,0,fixation,poldrack-single-stim,411,505266,0.0-6.2-61.2,go_nogo_deval,444,,<div class = centerbox><div class = fixation>+</div></div>,none,500,test,,,,,,,,,,,,407,32,850,0,stim,poldrack-single-stim,412,506118,0.0-6.2-62.2,go_nogo_deval,444,,<img class = center src='/static/experiments/go_nogo_deval/images/red_pentagon.png'></img>,32,850,test,red_pentagon,go2,32,20,2,,,,,,,-1,-1,1400,0,ITI,poldrack-single-stim,413,507519,0.0-6.2-63.2,go_nogo_deval,444,,<div></div>,32,1400,test,,,,,,,,,,,,-1,-1,500,0,fixation,poldrack-single-stim,414,508020,0.0-6.2-64.2,go_nogo_deval,444,,<div class = centerbox><div class = fixation>+</div></div>,none,500,test,,,,,,,,,,,,410,32,850,0,stim,poldrack-single-stim,415,508871,0.0-6.2-65.2,go_nogo_deval,444,,<img class = center src='/static/experiments/go_nogo_deval/images/red_pentagon.png'></img>,32,850,test,red_pentagon,go2,32,21,2,,,,,,,-1,-1,1400,0,ITI,poldrack-single-stim,416,510273,0.0-6.2-66.2,go_nogo_deval,444,,<div></div>,32,1400,test,,,,,,,,,,,,-1,-1,500,0,fixation,poldrack-single-stim,417,510775,0.0-6.2-67.2,go_nogo_deval,444,,<div class = centerbox><div class = fixation>+</div></div>,none,500,test,,,,,,,,,,,,-1,-1,850,0,stim,poldrack-single-stim,418,511627,0.0-6.2-68.2,go_nogo_deval,444,,<img class = center src='/static/experiments/go_nogo_deval/images/green_triangle.png'></img>,32,850,test,green_triangle,nogo1,-1,22,2,,,,,,,-1,-1,1400,0,ITI,poldrack-single-stim,419,513028,0.0-6.2-69.2,go_nogo_deval,444,,<div></div>,32,1400,test,,,,,,,,,,,,-1,-1,500,0,fixation,poldrack-single-stim,420,513529,0.0-6.2-70.2,go_nogo_deval,444,,<div class = centerbox><div class = fixation>+</div></div>,none,500,test,,,,,,,,,,,,434,32,850,0,stim,poldrack-single-stim,421,514380,0.0-6.2-71.2,go_nogo_deval,444,,<img class = center src='/static/experiments/go_nogo_deval/images/blue_rhombus.png'></img>,32,850,test,blue_rhombus,go1,32,23,2,,,,,,,-1,-1,1400,0,ITI,poldrack-single-stim,422,515781,0.0-6.2-72.2,go_nogo_deval,444,,<div></div>,32,1400,test,,,,,,,,,,,,-1,-1,500,0,fixation,poldrack-single-stim,423,516283,0.0-6.2-73.2,go_nogo_deval,444,,<div class = centerbox><div class = fixation>+</div></div>,none,500,test,,,,,,,,,,,,-1,-1,850,0,stim,poldrack-single-stim,424,517135,0.0-6.2-74.2,go_nogo_deval,444,,<img class = center src='/static/experiments/go_nogo_deval/images/purple_circle.png'></img>,32,850,test,purple_circle,nogo2,-1,24,2,,,,,,,-1,-1,1400,0,ITI,poldrack-single-stim,425,518536,0.0-6.2-75.2,go_nogo_deval,444,,<div></div>,32,1400,test,,,,,,,,,,,,-1,-1,500,0,fixation,poldrack-single-stim,426,519038,0.0-6.2-76.2,go_nogo_deval,444,,<div class = centerbox><div class = fixation>+</div></div>,none,500,test,,,,,,,,,,,,-1,-1,850,0,stim,poldrack-single-stim,427,519889,0.0-6.2-77.2,go_nogo_deval,444,,<img class = center src='/static/experiments/go_nogo_deval/images/green_triangle.png'></img>,32,850,test,green_triangle,nogo1,-1,25,2,,,,,,,-1,-1,1400,0,ITI,poldrack-single-stim,428,521291,0.0-6.2-78.2,go_nogo_deval,444,,<div></div>,32,1400,test,,,,,,,,,,,,-1,-1,500,0,fixation,poldrack-single-stim,429,521792,0.0-6.2-79.2,go_nogo_deval,444,,<div class = centerbox><div class = fixation>+</div></div>,none,500,test,,,,,,,,,,,,-1,-1,850,0,stim,poldrack-single-stim,430,522644,0.0-6.2-80.2,go_nogo_deval,444,,<img class = center src='/static/experiments/go_nogo_deval/images/green_triangle.png'></img>,32,850,test,green_triangle,nogo1,-1,26,2,,,,,,,-1,-1,1400,0,ITI,poldrack-single-stim,431,524045,0.0-6.2-81.2,go_nogo_deval,444,,<div></div>,32,1400,test,,,,,,,,,,,,-1,-1,500,0,fixation,poldrack-single-stim,432,524547,0.0-6.2-82.2,go_nogo_deval,444,,<div class = centerbox><div class = fixation>+</div></div>,none,500,test,,,,,,,,,,,,499,32,850,0,stim,poldrack-single-stim,433,525398,0.0-6.2-83.2,go_nogo_deval,444,,<img class = center src='/static/experiments/go_nogo_deval/images/red_pentagon.png'></img>,32,850,test,red_pentagon,go2,32,27,2,,,,,,,-1,-1,1400,0,ITI,poldrack-single-stim,434,526799,0.0-6.2-84.2,go_nogo_deval,444,,<div></div>,32,1400,test,,,,,,,,,,,,-1,-1,500,0,fixation,poldrack-single-stim,435,527300,0.0-6.2-85.2,go_nogo_deval,444,,<div class = centerbox><div class = fixation>+</div></div>,none,500,test,,,,,,,,,,,,-1,-1,850,0,stim,poldrack-single-stim,436,528152,0.0-6.2-86.2,go_nogo_deval,444,,<img class = center src='/static/experiments/go_nogo_deval/images/purple_circle.png'></img>,32,850,test,purple_circle,nogo2,-1,28,2,,,,,,,-1,-1,1400,0,ITI,poldrack-single-stim,437,529554,0.0-6.2-87.2,go_nogo_deval,444,,<div></div>,32,1400,test,,,,,,,,,,,,-1,-1,500,0,fixation,poldrack-single-stim,438,530055,0.0-6.2-88.2,go_nogo_deval,444,,<div class = centerbox><div class = fixation>+</div></div>,none,500,test,,,,,,,,,,,,547,32,850,0,stim,poldrack-single-stim,439,530906,0.0-6.2-89.2,go_nogo_deval,444,,<img class = center src='/static/experiments/go_nogo_deval/images/blue_rhombus.png'></img>,32,850,test,blue_rhombus,go1,32,29,2,,,,,,,-1,-1,1400,0,ITI,poldrack-single-stim,440,532308,0.0-6.2-90.2,go_nogo_deval,444,,<div></div>,32,1400,test,,,,,,,,,,,,-1,-1,500,0,fixation,poldrack-single-stim,441,532810,0.0-6.2-91.2,go_nogo_deval,444,,<div class = centerbox><div class = fixation>+</div></div>,none,500,test,,,,,,,,,,,,459,32,850,0,stim,poldrack-single-stim,442,533662,0.0-6.2-92.2,go_nogo_deval,444,,<img class = center src='/static/experiments/go_nogo_deval/images/red_pentagon.png'></img>,32,850,test,red_pentagon,go2,32,30,2,,,,,,,-1,-1,1400,0,ITI,poldrack-single-stim,443,535063,0.0-6.2-93.2,go_nogo_deval,444,,<div></div>,32,1400,test,,,,,,,,,,,,-1,-1,500,0,fixation,poldrack-single-stim,444,535564,0.0-6.2-94.2,go_nogo_deval,444,,<div class = centerbox><div class = fixation>+</div></div>,none,500,test,,,,,,,,,,,,483,32,850,0,stim,poldrack-single-stim,445,536416,0.0-6.2-95.2,go_nogo_deval,444,,<img class = center src='/static/experiments/go_nogo_deval/images/blue_rhombus.png'></img>,32,850,test,blue_rhombus,go1,32,31,2,,,,,,,-1,-1,1400,0,ITI,poldrack-single-stim,446,537818,0.0-6.2-96.2,go_nogo_deval,444,,<div></div>,32,1400,test,,,,,,,,,,,,-1,-1,500,0,fixation,poldrack-single-stim,447,538319,0.0-6.2-97.2,go_nogo_deval,444,,<div class = centerbox><div class = fixation>+</div></div>,none,500,test,,,,,,,,,,,,-1,-1,850,0,stim,poldrack-single-stim,448,539171,0.0-6.2-98.2,go_nogo_deval,444,,<img class = center src='/static/experiments/go_nogo_deval/images/green_triangle.png'></img>,32,850,test,green_triangle,nogo1,-1,32,2,,,,,,,-1,-1,1400,0,ITI,poldrack-single-stim,449,540573,0.0-6.2-99.2,go_nogo_deval,444,,<div></div>,32,1400,test,,,,,,,,,,,,-1,-1,500,0,fixation,poldrack-single-stim,450,541075,0.0-6.2-100.2,go_nogo_deval,444,,<div class = centerbox><div class = fixation>+</div></div>,none,500,test,,,,,,,,,,,,441,32,850,0,stim,poldrack-single-stim,451,541926,0.0-6.2-101.2,go_nogo_deval,444,,<img class = center src='/static/experiments/go_nogo_deval/images/red_pentagon.png'></img>,32,850,test,red_pentagon,go2,32,33,2,,,,,,,-1,-1,1400,0,ITI,poldrack-single-stim,452,543328,0.0-6.2-102.2,go_nogo_deval,444,,<div></div>,32,1400,test,,,,,,,,,,,,-1,-1,500,0,fixation,poldrack-single-stim,453,543830,0.0-6.2-103.2,go_nogo_deval,444,,<div class = centerbox><div class = fixation>+</div></div>,none,500,test,,,,,,,,,,,,397,32,850,0,stim,poldrack-single-stim,454,544681,0.0-6.2-104.2,go_nogo_deval,444,,<img class = center src='/static/experiments/go_nogo_deval/images/red_pentagon.png'></img>,32,850,test,red_pentagon,go2,32,34,2,,,,,,,-1,-1,1400,0,ITI,poldrack-single-stim,455,546083,0.0-6.2-105.2,go_nogo_deval,444,,<div></div>,32,1400,test,,,,,,,,,,,,-1,-1,500,0,fixation,poldrack-single-stim,456,546584,0.0-6.2-106.2,go_nogo_deval,444,,<div class = centerbox><div class = fixation>+</div></div>,none,500,test,,,,,,,,,,,,456,32,850,0,stim,poldrack-single-stim,457,547436,0.0-6.2-107.2,go_nogo_deval,444,,<img class = center src='/static/experiments/go_nogo_deval/images/red_pentagon.png'></img>,32,850,test,red_pentagon,go2,32,35,2,,,,,,,-1,-1,1400,0,ITI,poldrack-single-stim,458,548837,0.0-6.2-108.2,go_nogo_deval,444,,<div></div>,32,1400,test,,,,,,,,,,,,-1,-1,500,0,fixation,poldrack-single-stim,459,549339,0.0-6.2-109.2,go_nogo_deval,444,,<div class = centerbox><div class = fixation>+</div></div>,none,500,test,,,,,,,,,,,,491,32,850,0,stim,poldrack-single-stim,460,550190,0.0-6.2-110.2,go_nogo_deval,444,,<img class = center src='/static/experiments/go_nogo_deval/images/blue_rhombus.png'></img>,32,850,test,blue_rhombus,go1,32,36,2,,,,,,,-1,-1,1400,0,ITI,poldrack-single-stim,461,551591,0.0-6.2-111.2,go_nogo_deval,444,,<div></div>,32,1400,test,,,,,,,,,,,,-1,-1,500,0,fixation,poldrack-single-stim,462,552093,0.0-6.2-112.2,go_nogo_deval,444,,<div class = centerbox><div class = fixation>+</div></div>,none,500,test,,,,,,,,,,,,493,32,850,0,stim,poldrack-single-stim,463,552945,0.0-6.2-113.2,go_nogo_deval,444,,<img class = center src='/static/experiments/go_nogo_deval/images/blue_rhombus.png'></img>,32,850,test,blue_rhombus,go1,32,37,2,,,,,,,-1,-1,1400,0,ITI,poldrack-single-stim,464,554346,0.0-6.2-114.2,go_nogo_deval,444,,<div></div>,32,1400,test,,,,,,,,,,,,-1,-1,500,0,fixation,poldrack-single-stim,465,554848,0.0-6.2-115.2,go_nogo_deval,444,,<div class = centerbox><div class = fixation>+</div></div>,none,500,test,,,,,,,,,,,,370,32,850,0,stim,poldrack-single-stim,466,555698,0.0-6.2-116.2,go_nogo_deval,444,,<img class = center src='/static/experiments/go_nogo_deval/images/red_pentagon.png'></img>,32,850,test,red_pentagon,go2,32,38,2,,,,,,,-1,-1,1400,0,ITI,poldrack-single-stim,467,557100,0.0-6.2-117.2,go_nogo_deval,444,,<div></div>,32,1400,test,,,,,,,,,,,,-1,-1,500,0,fixation,poldrack-single-stim,468,557602,0.0-6.2-118.2,go_nogo_deval,444,,<div class = centerbox><div class = fixation>+</div></div>,none,500,test,,,,,,,,,,,,418,32,850,0,stim,poldrack-single-stim,469,558454,0.0-6.2-119.2,go_nogo_deval,444,,<img class = center src='/static/experiments/go_nogo_deval/images/red_pentagon.png'></img>,32,850,test,red_pentagon,go2,32,39,2,,,,,,,-1,-1,1400,0,ITI,poldrack-single-stim,470,559856,0.0-6.2-120.2,go_nogo_deval,444,,<div></div>,32,1400,test,,,,,,,,,,,,-1,-1,500,0,fixation,poldrack-single-stim,471,560358,0.0-6.2-121.2,go_nogo_deval,444,,<div class = centerbox><div class = fixation>+</div></div>,none,500,test,,,,,,,,,,,,417,32,850,0,stim,poldrack-single-stim,472,561210,0.0-6.2-122.2,go_nogo_deval,444,,<img class = center src='/static/experiments/go_nogo_deval/images/blue_rhombus.png'></img>,32,850,test,blue_rhombus,go1,32,40,2,,,,,,,-1,-1,1400,0,ITI,poldrack-single-stim,473,562612,0.0-6.2-123.2,go_nogo_deval,444,,<div></div>,32,1400,test,,,,,,,,,,,,-1,-1,500,0,fixation,poldrack-single-stim,474,563113,0.0-6.2-124.2,go_nogo_deval,444,,<div class = centerbox><div class = fixation>+</div></div>,none,500,test,,,,,,,,,,,,-1,-1,850,0,stim,poldrack-single-stim,475,563964,0.0-6.2-125.2,go_nogo_deval,444,,<img class = center src='/static/experiments/go_nogo_deval/images/purple_circle.png'></img>,32,850,test,purple_circle,nogo2,-1,41,2,,,,,,,-1,-1,1400,0,ITI,poldrack-single-stim,476,565366,0.0-6.2-126.2,go_nogo_deval,444,,<div></div>,32,1400,test,,,,,,,,,,,,-1,-1,500,0,fixation,poldrack-single-stim,477,565867,0.0-6.2-127.2,go_nogo_deval,444,,<div class = centerbox><div class = fixation>+</div></div>,none,500,test,,,,,,,,,,,,466,32,850,0,stim,poldrack-single-stim,478,566718,0.0-6.2-128.2,go_nogo_deval,444,,<img class = center src='/static/experiments/go_nogo_deval/images/blue_rhombus.png'></img>,32,850,test,blue_rhombus,go1,32,42,2,,,,,,,-1,-1,1400,0,ITI,poldrack-single-stim,479,568120,0.0-6.2-129.2,go_nogo_deval,444,,<div></div>,32,1400,test,,,,,,,,,,,,-1,-1,500,0,fixation,poldrack-single-stim,480,568621,0.0-6.2-130.2,go_nogo_deval,444,,<div class = centerbox><div class = fixation>+</div></div>,none,500,test,,,,,,,,,,,,-1,-1,850,0,stim,poldrack-single-stim,481,569473,0.0-6.2-131.2,go_nogo_deval,444,,<img class = center src='/static/experiments/go_nogo_deval/images/purple_circle.png'></img>,32,850,test,purple_circle,nogo2,-1,43,2,,,,,,,-1,-1,1400,0,ITI,poldrack-single-stim,482,570875,0.0-6.2-132.2,go_nogo_deval,444,,<div></div>,32,1400,test,,,,,,,,,,,,-1,-1,500,0,fixation,poldrack-single-stim,483,571376,0.0-6.2-133.2,go_nogo_deval,444,,<div class = centerbox><div class = fixation>+</div></div>,none,500,test,,,,,,,,,,,,413,32,850,0,stim,poldrack-single-stim,484,572228,0.0-6.2-134.2,go_nogo_deval,444,,<img class = center src='/static/experiments/go_nogo_deval/images/red_pentagon.png'></img>,32,850,test,red_pentagon,go2,32,44,2,,,,,,,-1,-1,1400,0,ITI,poldrack-single-stim,485,573629,0.0-6.2-135.2,go_nogo_deval,444,,<div></div>,32,1400,test,,,,,,,,,,,,-1,-1,500,0,fixation,poldrack-single-stim,486,574130,0.0-6.2-136.2,go_nogo_deval,444,,<div class = centerbox><div class = fixation>+</div></div>,none,500,test,,,,,,,,,,,,-1,-1,850,0,stim,poldrack-single-stim,487,574982,0.0-6.2-137.2,go_nogo_deval,444,,<img class = center src='/static/experiments/go_nogo_deval/images/purple_circle.png'></img>,32,850,test,purple_circle,nogo2,-1,45,2,,,,,,,-1,-1,1400,0,ITI,poldrack-single-stim,488,576383,0.0-6.2-138.2,go_nogo_deval,444,,<div></div>,32,1400,test,,,,,,,,,,,,-1,-1,500,0,fixation,poldrack-single-stim,489,576884,0.0-6.2-139.2,go_nogo_deval,444,,<div class = centerbox><div class = fixation>+</div></div>,none,500,test,,,,,,,,,,,,339,32,850,0,stim,poldrack-single-stim,490,577736,0.0-6.2-140.2,go_nogo_deval,444,,<img class = center src='/static/experiments/go_nogo_deval/images/red_pentagon.png'></img>,32,850,test,red_pentagon,go2,32,46,2,,,,,,,-1,-1,1400,0,ITI,poldrack-single-stim,491,579138,0.0-6.2-141.2,go_nogo_deval,444,,<div></div>,32,1400,test,,,,,,,,,,,,-1,-1,500,0,fixation,poldrack-single-stim,492,579639,0.0-6.2-142.2,go_nogo_deval,444,,<div class = centerbox><div class = fixation>+</div></div>,none,500,test,,,,,,,,,,,,452,32,850,0,stim,poldrack-single-stim,493,580490,0.0-6.2-143.2,go_nogo_deval,444,,<img class = center src='/static/experiments/go_nogo_deval/images/blue_rhombus.png'></img>,32,850,test,blue_rhombus,go1,32,47,2,,,,,,,-1,-1,1400,0,ITI,poldrack-single-stim,494,581892,0.0-6.2-144.2,go_nogo_deval,444,,<div></div>,32,1400,test,,,,,,,,,,,,6341,13,6341,0,practice-no-stop-feedback,poldrack-single-stim,495,588238,0.0-6.3-0.3,go_nogo_deval,444,,<div class = centerbox><p class = block-text><br>Please take this time to read your feedback and to take a short break! Press enter to continue</p><p class = block-text><strong>Average reaction time:  461 ms. Accuracy: 98%</strong></p></div>,13,6341,,,,,,,,,,,,,-1,-1,500,0,fixation,poldrack-single-stim,496,588739,0.0-6.3-1.3,go_nogo_deval,444,,<div class = centerbox><div class = fixation>+</div></div>,none,500,test,,,,,,,,,,,,500,32,850,0,stim,poldrack-single-stim,497,589591,0.0-6.3-2.3,go_nogo_deval,444,,<img class = center src='/static/experiments/go_nogo_deval/images/red_pentagon.png'></img>,32,850,test,red_pentagon,go2,32,0,3,,,,,,,-1,-1,1400,0,ITI,poldrack-single-stim,498,590992,0.0-6.3-3.3,go_nogo_deval,444,,<div></div>,32,1400,test,,,,,,,,,,,,-1,-1,500,0,fixation,poldrack-single-stim,499,591494,0.0-6.3-4.3,go_nogo_deval,444,,<div class = centerbox><div class = fixation>+</div></div>,none,500,test,,,,,,,,,,,,-1,-1,850,0,stim,poldrack-single-stim,500,592345,0.0-6.3-5.3,go_nogo_deval,444,,<img class = center src='/static/experiments/go_nogo_deval/images/purple_circle.png'></img>,32,850,test,purple_circle,nogo2,-1,1,3,,,,,,,-1,-1,1400,0,ITI,poldrack-single-stim,501,593747,0.0-6.3-6.3,go_nogo_deval,444,,<div></div>,32,1400,test,,,,,,,,,,,,-1,-1,500,0,fixation,poldrack-single-stim,502,594249,0.0-6.3-7.3,go_nogo_deval,444,,<div class = centerbox><div class = fixation>+</div></div>,none,500,test,,,,,,,,,,,,345,32,850,0,stim,poldrack-single-stim,503,595101,0.0-6.3-8.3,go_nogo_deval,444,,<img class = center src='/static/experiments/go_nogo_deval/images/blue_rhombus.png'></img>,32,850,test,blue_rhombus,go1,32,2,3,,,,,,,-1,-1,1400,0,ITI,poldrack-single-stim,504,596502,0.0-6.3-9.3,go_nogo_deval,444,,<div></div>,32,1400,test,,,,,,,,,,,,-1,-1,500,0,fixation,poldrack-single-stim,505,597004,0.0-6.3-10.3,go_nogo_deval,444,,<div class = centerbox><div class = fixation>+</div></div>,none,500,test,,,,,,,,,,,,-1,-1,850,0,stim,poldrack-single-stim,506,597854,0.0-6.3-11.3,go_nogo_deval,444,,<img class = center src='/static/experiments/go_nogo_deval/images/purple_circle.png'></img>,32,850,test,purple_circle,nogo2,-1,3,3,,,,,,,-1,-1,1400,0,ITI,poldrack-single-stim,507,599256,0.0-6.3-12.3,go_nogo_deval,444,,<div></div>,32,1400,test,,,,,,,,,,,,-1,-1,500,0,fixation,poldrack-single-stim,508,599758,0.0-6.3-13.3,go_nogo_deval,444,,<div class = centerbox><div class = fixation>+</div></div>,none,500,test,,,,,,,,,,,,-1,-1,850,0,stim,poldrack-single-stim,509,600609,0.0-6.3-14.3,go_nogo_deval,444,,<img class = center src='/static/experiments/go_nogo_deval/images/purple_circle.png'></img>,32,850,test,purple_circle,nogo2,-1,4,3,,,,,,,-1,-1,1400,0,ITI,poldrack-single-stim,510,602011,0.0-6.3-15.3,go_nogo_deval,444,,<div></div>,32,1400,test,,,,,,,,,,,,-1,-1,500,0,fixation,poldrack-single-stim,511,602512,0.0-6.3-16.3,go_nogo_deval,444,,<div class = centerbox><div class = fixation>+</div></div>,none,500,test,,,,,,,,,,,,396,32,850,0,stim,poldrack-single-stim,512,603364,0.0-6.3-17.3,go_nogo_deval,444,,<img class = center src='/static/experiments/go_nogo_deval/images/red_pentagon.png'></img>,32,850,test,red_pentagon,go2,32,5,3,,,,,,,-1,-1,1400,0,ITI,poldrack-single-stim,513,604766,0.0-6.3-18.3,go_nogo_deval,444,,<div></div>,32,1400,test,,,,,,,,,,,,-1,-1,500,0,fixation,poldrack-single-stim,514,605267,0.0-6.3-19.3,go_nogo_deval,444,,<div class = centerbox><div class = fixation>+</div></div>,none,500,test,,,,,,,,,,,,497,32,850,0,stim,poldrack-single-stim,515,606118,0.0-6.3-20.3,go_nogo_deval,444,,<img class = center src='/static/experiments/go_nogo_deval/images/blue_rhombus.png'></img>,32,850,test,blue_rhombus,go1,32,6,3,,,,,,,-1,-1,1400,0,ITI,poldrack-single-stim,516,607520,0.0-6.3-21.3,go_nogo_deval,444,,<div></div>,32,1400,test,,,,,,,,,,,,-1,-1,500,0,fixation,poldrack-single-stim,517,608022,0.0-6.3-22.3,go_nogo_deval,444,,<div class = centerbox><div class = fixation>+</div></div>,none,500,test,,,,,,,,,,,,-1,-1,850,0,stim,poldrack-single-stim,518,608874,0.0-6.3-23.3,go_nogo_deval,444,,<img class = center src='/static/experiments/go_nogo_deval/images/purple_circle.png'></img>,32,850,test,purple_circle,nogo2,-1,7,3,,,,,,,-1,-1,1400,0,ITI,poldrack-single-stim,519,610275,0.0-6.3-24.3,go_nogo_deval,444,,<div></div>,32,1400,test,,,,,,,,,,,,-1,-1,500,0,fixation,poldrack-single-stim,520,610776,0.0-6.3-25.3,go_nogo_deval,444,,<div class = centerbox><div class = fixation>+</div></div>,none,500,test,,,,,,,,,,,,467,32,850,0,stim,poldrack-single-stim,521,611628,0.0-6.3-26.3,go_nogo_deval,444,,<img class = center src='/static/experiments/go_nogo_deval/images/red_pentagon.png'></img>,32,850,test,red_pentagon,go2,32,8,3,,,,,,,-1,-1,1400,0,ITI,poldrack-single-stim,522,613030,0.0-6.3-27.3,go_nogo_deval,444,,<div></div>,32,1400,test,,,,,,,,,,,,-1,-1,500,0,fixation,poldrack-single-stim,523,613531,0.0-6.3-28.3,go_nogo_deval,444,,<div class = centerbox><div class = fixation>+</div></div>,none,500,test,,,,,,,,,,,,402,32,850,0,stim,poldrack-single-stim,524,614383,0.0-6.3-29.3,go_nogo_deval,444,,<img class = center src='/static/experiments/go_nogo_deval/images/red_pentagon.png'></img>,32,850,test,red_pentagon,go2,32,9,3,,,,,,,-1,-1,1400,0,ITI,poldrack-single-stim,525,615785,0.0-6.3-30.3,go_nogo_deval,444,,<div></div>,32,1400,test,,,,,,,,,,,,-1,-1,500,0,fixation,poldrack-single-stim,526,616286,0.0-6.3-31.3,go_nogo_deval,444,,<div class = centerbox><div class = fixation>+</div></div>,none,500,test,,,,,,,,,,,,424,32,850,0,stim,poldrack-single-stim,527,617138,0.0-6.3-32.3,go_nogo_deval,444,,<img class = center src='/static/experiments/go_nogo_deval/images/blue_rhombus.png'></img>,32,850,test,blue_rhombus,go1,32,10,3,,,,,,,-1,-1,1400,0,ITI,poldrack-single-stim,528,618539,0.0-6.3-33.3,go_nogo_deval,444,,<div></div>,32,1400,test,,,,,,,,,,,,-1,-1,500,0,fixation,poldrack-single-stim,529,619041,0.0-6.3-34.3,go_nogo_deval,444,,<div class = centerbox><div class = fixation>+</div></div>,none,500,test,,,,,,,,,,,,449,32,850,0,stim,poldrack-single-stim,530,619893,0.0-6.3-35.3,go_nogo_deval,444,,<img class = center src='/static/experiments/go_nogo_deval/images/red_pentagon.png'></img>,32,850,test,red_pentagon,go2,32,11,3,,,,,,,-1,-1,1400,0,ITI,poldrack-single-stim,531,621295,0.0-6.3-36.3,go_nogo_deval,444,,<div></div>,32,1400,test,,,,,,,,,,,,-1,-1,500,0,fixation,poldrack-single-stim,532,621797,0.0-6.3-37.3,go_nogo_deval,444,,<div class = centerbox><div class = fixation>+</div></div>,none,500,test,,,,,,,,,,,,-1,-1,850,0,stim,poldrack-single-stim,533,622648,0.0-6.3-38.3,go_nogo_deval,444,,<img class = center src='/static/experiments/go_nogo_deval/images/green_triangle.png'></img>,32,850,test,green_triangle,nogo1,-1,12,3,,,,,,,-1,-1,1400,0,ITI,poldrack-single-stim,534,624049,0.0-6.3-39.3,go_nogo_deval,444,,<div></div>,32,1400,test,,,,,,,,,,,,-1,-1,500,0,fixation,poldrack-single-stim,535,624551,0.0-6.3-40.3,go_nogo_deval,444,,<div class = centerbox><div class = fixation>+</div></div>,none,500,test,,,,,,,,,,,,486,32,850,0,stim,poldrack-single-stim,536,625403,0.0-6.3-41.3,go_nogo_deval,444,,<img class = center src='/static/experiments/go_nogo_deval/images/blue_rhombus.png'></img>,32,850,test,blue_rhombus,go1,32,13,3,,,,,,,-1,-1,1400,0,ITI,poldrack-single-stim,537,626804,0.0-6.3-42.3,go_nogo_deval,444,,<div></div>,32,1400,test,,,,,,,,,,,,-1,-1,500,0,fixation,poldrack-single-stim,538,627305,0.0-6.3-43.3,go_nogo_deval,444,,<div class = centerbox><div class = fixation>+</div></div>,none,500,test,,,,,,,,,,,,-1,-1,850,0,stim,poldrack-single-stim,539,628157,0.0-6.3-44.3,go_nogo_deval,444,,<img class = center src='/static/experiments/go_nogo_deval/images/purple_circle.png'></img>,32,850,test,purple_circle,nogo2,-1,14,3,,,,,,,-1,-1,1400,0,ITI,poldrack-single-stim,540,629558,0.0-6.3-45.3,go_nogo_deval,444,,<div></div>,32,1400,test,,,,,,,,,,,,-1,-1,500,0,fixation,poldrack-single-stim,541,630060,0.0-6.3-46.3,go_nogo_deval,444,,<div class = centerbox><div class = fixation>+</div></div>,none,500,test,,,,,,,,,,,,421,32,850,0,stim,poldrack-single-stim,542,630911,0.0-6.3-47.3,go_nogo_deval,444,,<img class = center src='/static/experiments/go_nogo_deval/images/blue_rhombus.png'></img>,32,850,test,blue_rhombus,go1,32,15,3,,,,,,,-1,-1,1400,0,ITI,poldrack-single-stim,543,632313,0.0-6.3-48.3,go_nogo_deval,444,,<div></div>,32,1400,test,,,,,,,,,,,,-1,-1,500,0,fixation,poldrack-single-stim,544,632814,0.0-6.3-49.3,go_nogo_deval,444,,<div class = centerbox><div class = fixation>+</div></div>,none,500,test,,,,,,,,,,,,-1,-1,850,0,stim,poldrack-single-stim,545,633665,0.0-6.3-50.3,go_nogo_deval,444,,<img class = center src='/static/experiments/go_nogo_deval/images/green_triangle.png'></img>,32,850,test,green_triangle,nogo1,-1,16,3,,,,,,,-1,-1,1400,0,ITI,poldrack-single-stim,546,635066,0.0-6.3-51.3,go_nogo_deval,444,,<div></div>,32,1400,test,,,,,,,,,,,,-1,-1,500,0,fixation,poldrack-single-stim,547,635568,0.0-6.3-52.3,go_nogo_deval,444,,<div class = centerbox><div class = fixation>+</div></div>,none,500,test,,,,,,,,,,,,415,32,850,0,stim,poldrack-single-stim,548,636419,0.0-6.3-53.3,go_nogo_deval,444,,<img class = center src='/static/experiments/go_nogo_deval/images/red_pentagon.png'></img>,32,850,test,red_pentagon,go2,32,17,3,,,,,,,-1,-1,1400,0,ITI,poldrack-single-stim,549,637821,0.0-6.3-54.3,go_nogo_deval,444,,<div></div>,32,1400,test,,,,,,,,,,,,-1,-1,500,0,fixation,poldrack-single-stim,550,638322,0.0-6.3-55.3,go_nogo_deval,444,,<div class = centerbox><div class = fixation>+</div></div>,none,500,test,,,,,,,,,,,,-1,-1,850,0,stim,poldrack-single-stim,551,639174,0.0-6.3-56.3,go_nogo_deval,444,,<img class = center src='/static/experiments/go_nogo_deval/images/green_triangle.png'></img>,32,850,test,green_triangle,nogo1,-1,18,3,,,,,,,-1,-1,1400,0,ITI,poldrack-single-stim,552,640575,0.0-6.3-57.3,go_nogo_deval,444,,<div></div>,32,1400,test,,,,,,,,,,,,-1,-1,500,0,fixation,poldrack-single-stim,553,641077,0.0-6.3-58.3,go_nogo_deval,444,,<div class = centerbox><div class = fixation>+</div></div>,none,500,test,,,,,,,,,,,,-1,-1,850,0,stim,poldrack-single-stim,554,641928,0.0-6.3-59.3,go_nogo_deval,444,,<img class = center src='/static/experiments/go_nogo_deval/images/green_triangle.png'></img>,32,850,test,green_triangle,nogo1,-1,19,3,,,,,,,-1,-1,1400,0,ITI,poldrack-single-stim,555,643329,0.0-6.3-60.3,go_nogo_deval,444,,<div></div>,32,1400,test,,,,,,,,,,,,-1,-1,500,0,fixation,poldrack-single-stim,556,643831,0.0-6.3-61.3,go_nogo_deval,444,,<div class = centerbox><div class = fixation>+</div></div>,none,500,test,,,,,,,,,,,,419,32,850,0,stim,poldrack-single-stim,557,644683,0.0-6.3-62.3,go_nogo_deval,444,,<img class = center src='/static/experiments/go_nogo_deval/images/blue_rhombus.png'></img>,32,850,test,blue_rhombus,go1,32,20,3,,,,,,,-1,-1,1400,0,ITI,poldrack-single-stim,558,646084,0.0-6.3-63.3,go_nogo_deval,444,,<div></div>,32,1400,test,,,,,,,,,,,,-1,-1,500,0,fixation,poldrack-single-stim,559,646585,0.0-6.3-64.3,go_nogo_deval,444,,<div class = centerbox><div class = fixation>+</div></div>,none,500,test,,,,,,,,,,,,389,32,850,0,stim,poldrack-single-stim,560,647436,0.0-6.3-65.3,go_nogo_deval,444,,<img class = center src='/static/experiments/go_nogo_deval/images/red_pentagon.png'></img>,32,850,test,red_pentagon,go2,32,21,3,,,,,,,-1,-1,1400,0,ITI,poldrack-single-stim,561,648838,0.0-6.3-66.3,go_nogo_deval,444,,<div></div>,32,1400,test,,,,,,,,,,,,-1,-1,500,0,fixation,poldrack-single-stim,562,649340,0.0-6.3-67.3,go_nogo_deval,444,,<div class = centerbox><div class = fixation>+</div></div>,none,500,test,,,,,,,,,,,,334,32,850,0,stim,poldrack-single-stim,563,650191,0.0-6.3-68.3,go_nogo_deval,444,,<img class = center src='/static/experiments/go_nogo_deval/images/red_pentagon.png'></img>,32,850,test,red_pentagon,go2,32,22,3,,,,,,,-1,-1,1400,0,ITI,poldrack-single-stim,564,651592,0.0-6.3-69.3,go_nogo_deval,444,,<div></div>,32,1400,test,,,,,,,,,,,,-1,-1,500,0,fixation,poldrack-single-stim,565,652094,0.0-6.3-70.3,go_nogo_deval,444,,<div class = centerbox><div class = fixation>+</div></div>,none,500,test,,,,,,,,,,,,-1,-1,850,0,stim,poldrack-single-stim,566,652945,0.0-6.3-71.3,go_nogo_deval,444,,<img class = center src='/static/experiments/go_nogo_deval/images/green_triangle.png'></img>,32,850,test,green_triangle,nogo1,-1,23,3,,,,,,,-1,-1,1400,0,ITI,poldrack-single-stim,567,654346,0.0-6.3-72.3,go_nogo_deval,444,,<div></div>,32,1400,test,,,,,,,,,,,,-1,-1,500,0,fixation,poldrack-single-stim,568,654848,0.0-6.3-73.3,go_nogo_deval,444,,<div class = centerbox><div class = fixation>+</div></div>,none,500,test,,,,,,,,,,,,-1,-1,850,0,stim,poldrack-single-stim,569,655700,0.0-6.3-74.3,go_nogo_deval,444,,<img class = center src='/static/experiments/go_nogo_deval/images/green_triangle.png'></img>,32,850,test,green_triangle,nogo1,-1,24,3,,,,,,,-1,-1,1400,0,ITI,poldrack-single-stim,570,657101,0.0-6.3-75.3,go_nogo_deval,444,,<div></div>,32,1400,test,,,,,,,,,,,,-1,-1,500,0,fixation,poldrack-single-stim,571,657602,0.0-6.3-76.3,go_nogo_deval,444,,<div class = centerbox><div class = fixation>+</div></div>,none,500,test,,,,,,,,,,,,409,32,850,0,stim,poldrack-single-stim,572,658454,0.0-6.3-77.3,go_nogo_deval,444,,<img class = center src='/static/experiments/go_nogo_deval/images/blue_rhombus.png'></img>,32,850,test,blue_rhombus,go1,32,25,3,,,,,,,-1,-1,1400,0,ITI,poldrack-single-stim,573,659855,0.0-6.3-78.3,go_nogo_deval,444,,<div></div>,32,1400,test,,,,,,,,,,,