text,rt,key_press,block_duration,timing_post_trial,trial_id,trial_type,trial_index,time_elapsed,internal_node_id,exp_id,subject_ID,view_history,stimulus,possible_responses,stim_duration,exp_stage,stim,go_nogo_type,correct_response,current_trial,current_block,chosenStim,chosenCond,stimLeft,cond_left,stimRight,cond_right<div class = centerbox><p class = center-block-text>Welcome to the task!</p><p class = center-block-text>Press<strong> enter</strong> to continue.</p></div>,1593,13,1593,0,welcome,poldrack-text,0,1595,0.0-0.0,go_nogo_deval,469,,,,,,,,,,,,,,,,,56148,,,,instruction,poldrack-instructions,1,57744,0.0-1.0,go_nogo_deval,469,"[{""page_index"":0,""viewing_time"":3723},{""page_index"":1,""viewing_time"":52424}]",,,,,,,,,,,,,,,,18133,13,18133,0,stop_intro_phase1,poldrack-single-stim,2,76880,0.0-2.0,go_nogo_deval,469,,"<div class = centerbox><p class = block-text>We will now start the practice for the experiment.<br><br>For these trials, you must press the <strong>spacebar </strong> or have <strong>no response</strong> depending on the shape of the stimulus.  Make sure to respond as quickly and accurately as possible to the shape. <br><br> The responses for each shape are as follows: <ul list-text><li>circle: spacebar</li><li>rhombus: spacebar</li><li>triangle: no response</li><li>pentagon: no response</li></ul></p><p class = block-text>Remember these rules before you proceed.</p><p class = block-text>Press <strong> enter</strong> to begin.</p></div>",13,18133,,,,,,,,,,,,,2551,13,2551,0,practice-no-stop-feedback,poldrack-single-stim,3,79433,0.0-3.0-0.0,go_nogo_deval,469,,<div class = centerbox><p class = block-text>We will now start with a practice session. In this practice concentrate on responding quickly and accurately to each stimuli unless it requires no response.</p><p class = block-text>Press enter to continue.</p></div>,13,2551,,,,,,,,,,,,,-1,-1,500,0,prompt_fixation,poldrack-single-stim,4,79935,0.0-3.0-1.0,go_nogo_deval,469,,<div class = centerbox><div class = fixation>+</div></div>,none,500,practice,,,,,,,,,,,,542,32,850,0,stim,poldrack-single-stim,5,80788,0.0-3.0-2.0,go_nogo_deval,469,,<img class = center src='/static/experiments/go_nogo_deval/images/blue_rhombus.png'></img>,32,850,practice,blue_rhombus,go2,32,0,0,,,,,,,-1,-1,1400,0,ITI,poldrack-single-stim,6,82190,0.0-3.0-3.0,go_nogo_deval,469,,<div></div>,32,1400,practice,,,,,,,,,,,,-1,-1,500,0,prompt_fixation,poldrack-single-stim,7,82692,0.0-3.0-4.0,go_nogo_deval,469,,<div class = centerbox><div class = fixation>+</div></div>,none,500,practice,,,,,,,,,,,,-1,-1,850,0,stim,poldrack-single-stim,8,83544,0.0-3.0-5.0,go_nogo_deval,469,,<img class = center src='/static/experiments/go_nogo_deval/images/purple_triangle.png'></img>,32,850,practice,purple_triangle,nogo1,-1,1,0,,,,,,,-1,-1,1400,0,ITI,poldrack-single-stim,9,84946,0.0-3.0-6.0,go_nogo_deval,469,,<div></div>,32,1400,practice,,,,,,,,,,,,-1,-1,500,0,prompt_fixation,poldrack-single-stim,10,85447,0.0-3.0-7.0,go_nogo_deval,469,,<div class = centerbox><div class = fixation>+</div></div>,none,500,practice,,,,,,,,,,,,-1,-1,850,0,stim,poldrack-single-stim,11,86299,0.0-3.0-8.0,go_nogo_deval,469,,<img class = center src='/static/experiments/go_nogo_deval/images/purple_triangle.png'></img>,32,850,practice,purple_triangle,nogo1,-1,2,0,,,,,,,-1,-1,1400,0,ITI,poldrack-single-stim,12,87701,0.0-3.0-9.0,go_nogo_deval,469,,<div></div>,32,1400,practice,,,,,,,,,,,,-1,-1,500,0,prompt_fixation,poldrack-single-stim,13,88203,0.0-3.0-10.0,go_nogo_deval,469,,<div class = centerbox><div class = fixation>+</div></div>,none,500,practice,,,,,,,,,,,,420,32,850,0,stim,poldrack-single-stim,14,89055,0.0-3.0-11.0,go_nogo_deval,469,,<img class = center src='/static/experiments/go_nogo_deval/images/green_circle.png'></img>,32,850,practice,green_circle,go1,32,3,0,,,,,,,-1,-1,1400,0,ITI,poldrack-single-stim,15,90458,0.0-3.0-12.0,go_nogo_deval,469,,<div></div>,32,1400,practice,,,,,,,,,,,,-1,-1,500,0,prompt_fixation,poldrack-single-stim,16,90960,0.0-3.0-13.0,go_nogo_deval,469,,<div class = centerbox><div class = fixation>+</div></div>,none,500,practice,,,,,,,,,,,,352,32,850,0,stim,poldrack-single-stim,17,91811,0.0-3.0-14.0,go_nogo_deval,469,,<img class = center src='/static/experiments/go_nogo_deval/images/green_circle.png'></img>,32,850,practice,green_circle,go1,32,4,0,,,,,,,-1,-1,1400,0,ITI,poldrack-single-stim,18,93213,0.0-3.0-15.0,go_nogo_deval,469,,<div></div>,32,1400,practice,,,,,,,,,,,,-1,-1,500,0,prompt_fixation,poldrack-single-stim,19,93714,0.0-3.0-16.0,go_nogo_deval,469,,<div class = centerbox><div class = fixation>+</div></div>,none,500,practice,,,,,,,,,,,,387,32,850,0,stim,poldrack-single-stim,20,94566,0.0-3.0-17.0,go_nogo_deval,469,,<img class = center src='/static/experiments/go_nogo_deval/images/blue_rhombus.png'></img>,32,850,practice,blue_rhombus,go2,32,5,0,,,,,,,-1,-1,1400,0,ITI,poldrack-single-stim,21,95968,0.0-3.0-18.0,go_nogo_deval,469,,<div></div>,32,1400,practice,,,,,,,,,,,,-1,-1,500,0,prompt_fixation,poldrack-single-stim,22,96471,0.0-3.0-19.0,go_nogo_deval,469,,<div class = centerbox><div class = fixation>+</div></div>,none,500,practice,,,,,,,,,,,,354,32,850,0,stim,poldrack-single-stim,23,97323,0.0-3.0-20.0,go_nogo_deval,469,,<img class = center src='/static/experiments/go_nogo_deval/images/green_circle.png'></img>,32,850,practice,green_circle,go1,32,6,0,,,,,,,-1,-1,1400,0,ITI,poldrack-single-stim,24,98725,0.0-3.0-21.0,go_nogo_deval,469,,<div></div>,32,1400,practice,,,,,,,,,,,,-1,-1,500,0,prompt_fixation,poldrack-single-stim,25,99227,0.0-3.0-22.0,go_nogo_deval,469,,<div class = centerbox><div class = fixation>+</div></div>,none,500,practice,,,,,,,,,,,,433,32,850,0,stim,poldrack-single-stim,26,100079,0.0-3.0-23.0,go_nogo_deval,469,,<img class = center src='/static/experiments/go_nogo_deval/images/green_circle.png'></img>,32,850,practice,green_circle,go1,32,7,0,,,,,,,-1,-1,1400,0,ITI,poldrack-single-stim,27,101481,0.0-3.0-24.0,go_nogo_deval,469,,<div></div>,32,1400,practice,,,,,,,,,,,,-1,-1,500,0,prompt_fixation,poldrack-single-stim,28,101982,0.0-3.0-25.0,go_nogo_deval,469,,<div class = centerbox><div class = fixation>+</div></div>,none,500,practice,,,,,,,,,,,,333,32,850,0,stim,poldrack-single-stim,29,102833,0.0-3.0-26.0,go_nogo_deval,469,,<img class = center src='/static/experiments/go_nogo_deval/images/green_circle.png'></img>,32,850,practice,green_circle,go1,32,8,0,,,,,,,-1,-1,1400,0,ITI,poldrack-single-stim,30,104235,0.0-3.0-27.0,go_nogo_deval,469,,<div></div>,32,1400,practice,,,,,,,,,,,,-1,-1,500,0,prompt_fixation,poldrack-single-stim,31,104737,0.0-3.0-28.0,go_nogo_deval,469,,<div class = centerbox><div class = fixation>+</div></div>,none,500,practice,,,,,,,,,,,,402,32,850,0,stim,poldrack-single-stim,32,105589,0.0-3.0-29.0,go_nogo_deval,469,,<img class = center src='/static/experiments/go_nogo_deval/images/blue_rhombus.png'></img>,32,850,practice,blue_rhombus,go2,32,9,0,,,,,,,-1,-1,1400,0,ITI,poldrack-single-stim,33,106991,0.0-3.0-30.0,go_nogo_deval,469,,<div></div>,32,1400,practice,,,,,,,,,,,,-1,-1,500,0,prompt_fixation,poldrack-single-stim,34,107493,0.0-3.0-31.0,go_nogo_deval,469,,<div class = centerbox><div class = fixation>+</div></div>,none,500,practice,,,,,,,,,,,,-1,-1,850,0,stim,poldrack-single-stim,35,108345,0.0-3.0-32.0,go_nogo_deval,469,,<img class = center src='/static/experiments/go_nogo_deval/images/red_pentagon.png'></img>,32,850,practice,red_pentagon,nogo2,-1,10,0,,,,,,,-1,-1,1400,0,ITI,poldrack-single-stim,36,109746,0.0-3.0-33.0,go_nogo_deval,469,,<div></div>,32,1400,practice,,,,,,,,,,,,-1,-1,500,0,prompt_fixation,poldrack-single-stim,37,110247,0.0-3.0-34.0,go_nogo_deval,469,,<div class = centerbox><div class = fixation>+</div></div>,none,500,practice,,,,,,,,,,,,-1,-1,850,0,stim,poldrack-single-stim,38,111099,0.0-3.0-35.0,go_nogo_deval,469,,<img class = center src='/static/experiments/go_nogo_deval/images/red_pentagon.png'></img>,32,850,practice,red_pentagon,nogo2,-1,11,0,,,,,,,-1,-1,1400,0,ITI,poldrack-single-stim,39,112501,0.0-3.0-36.0,go_nogo_deval,469,,<div></div>,32,1400,practice,,,,,,,,,,,,-1,-1,500,0,prompt_fixation,poldrack-single-stim,40,113003,0.0-3.0-37.0,go_nogo_deval,469,,<div class = centerbox><div class = fixation>+</div></div>,none,500,practice,,,,,,,,,,,,495,32,850,0,stim,poldrack-single-stim,41,113855,0.0-3.0-38.0,go_nogo_deval,469,,<img class = center src='/static/experiments/go_nogo_deval/images/blue_rhombus.png'></img>,32,850,practice,blue_rhombus,go2,32,12,0,,,,,,,-1,-1,1400,0,ITI,poldrack-single-stim,42,115256,0.0-3.0-39.0,go_nogo_deval,469,,<div></div>,32,1400,practice,,,,,,,,,,,,-1,-1,500,0,prompt_fixation,poldrack-single-stim,43,115758,0.0-3.0-40.0,go_nogo_deval,469,,<div class = centerbox><div class = fixation>+</div></div>,none,500,practice,,,,,,,,,,,,-1,-1,850,0,stim,poldrack-single-stim,44,116609,0.0-3.0-41.0,go_nogo_deval,469,,<img class = center src='/static/experiments/go_nogo_deval/images/red_pentagon.png'></img>,32,850,practice,red_pentagon,nogo2,-1,13,0,,,,,,,-1,-1,1400,0,ITI,poldrack-single-stim,45,118011,0.0-3.0-42.0,go_nogo_deval,469,,<div></div>,32,1400,practice,,,,,,,,,,,,-1,-1,500,0,prompt_fixation,poldrack-single-stim,46,118513,0.0-3.0-43.0,go_nogo_deval,469,,<div class = centerbox><div class = fixation>+</div></div>,none,500,practice,,,,,,,,,,,,-1,-1,850,0,stim,poldrack-single-stim,47,119365,0.0-3.0-44.0,go_nogo_deval,469,,<img class = center src='/static/experiments/go_nogo_deval/images/purple_triangle.png'></img>,32,850,practice,purple_triangle,nogo1,-1,14,0,,,,,,,-1,-1,1400,0,ITI,poldrack-single-stim,48,120767,0.0-3.0-45.0,go_nogo_deval,469,,<div></div>,32,1400,practice,,,,,,,,,,,,-1,-1,500,0,prompt_fixation,poldrack-single-stim,49,121269,0.0-3.0-46.0,go_nogo_deval,469,,<div class = centerbox><div class = fixation>+</div></div>,none,500,practice,,,,,,,,,,,,631,32,850,0,stim,poldrack-single-stim,50,122122,0.0-3.0-47.0,go_nogo_deval,469,,<img class = center src='/static/experiments/go_nogo_deval/images/blue_rhombus.png'></img>,32,850,practice,blue_rhombus,go2,32,15,0,,,,,,,-1,-1,1400,0,ITI,poldrack-single-stim,51,123524,0.0-3.0-48.0,go_nogo_deval,469,,<div></div>,32,1400,practice,,,,,,,,,,,,-1,-1,500,0,prompt_fixation,poldrack-single-stim,52,124026,0.0-3.0-49.0,go_nogo_deval,469,,<div class = centerbox><div class = fixation>+</div></div>,none,500,practice,,,,,,,,,,,,373,32,850,0,stim,poldrack-single-stim,53,124878,0.0-3.0-50.0,go_nogo_deval,469,,<img class = center src='/static/experiments/go_nogo_deval/images/green_circle.png'></img>,32,850,practice,green_circle,go1,32,16,0,,,,,,,-1,-1,1400,0,ITI,poldrack-single-stim,54,126280,0.0-3.0-51.0,go_nogo_deval,469,,<div></div>,32,1400,practice,,,,,,,,,,,,-1,-1,500,0,prompt_fixation,poldrack-single-stim,55,126782,0.0-3.0-52.0,go_nogo_deval,469,,<div class = centerbox><div class = fixation>+</div></div>,none,500,practice,,,,,,,,,,,,418,32,850,0,stim,poldrack-single-stim,56,127634,0.0-3.0-53.0,go_nogo_deval,469,,<img class = center src='/static/experiments/go_nogo_deval/images/blue_rhombus.png'></img>,32,850,practice,blue_rhombus,go2,32,17,0,,,,,,,-1,-1,1400,0,ITI,poldrack-single-stim,57,129035,0.0-3.0-54.0,go_nogo_deval,469,,<div></div>,32,1400,practice,,,,,,,,,,,,2495,13,2495,0,practice-no-stop-feedback,poldrack-single-stim,58,131532,0.0-4.0,go_nogo_deval,469,,<div class = centerbox><p class = block-text><br>Please take this time to read your feedback and to take a short break! Press enter to continue</p><p class = block-text><strong>Average reaction time:  428 ms. Accuracy: 100%</strong></p><p class = block-text>Done with this practice.</p></div>,13,2495,,,,,,,,,,,,,32434,13,32434,0,main_stop_intro_phase3,poldrack-single-stim,59,163966,0.0-5.0,go_nogo_deval,469,,"<div class = centerbox><p class = block-text>We will now start the main phase of the experiment.<br><br>These trials are the same as the trials that you have just completed. <br><br>The rules for each shape are as follows:  <br><ul list-text><li>circle: spacebar</li><li>rhombus: spacebar</li><li>triangle: no response</li><li>pentagon: no response</li></ul></p><p class = block-text>Remember these rules before you proceed, as they will no longer be presented during the trial.</p><p class = block-text>Press <strong> enter</strong> to begin.</p></div>",13,32434,,,,,,,,,,,,,3014,13,3014,0,practice-no-stop-feedback,poldrack-single-stim,60,166981,0.0-6.0-0.0,go_nogo_deval,469,,"<div class = centerbox><p class = block-text>We will now start with a test session. In this test, concentrate on responding quickly and accurately to each stimuli unless it requires no response.</p><p class = block-text>Press enter to continue.</p></div>",13,3014,,,,,,,,,,,,,-1,-1,500,0,fixation,poldrack-single-stim,61,167482,0.0-6.0-1.0,go_nogo_deval,469,,<div class = centerbox><div class = fixation>+</div></div>,none,500,test,,,,,,,,,,,,-1,-1,850,0,stim,poldrack-single-stim,62,168333,0.0-6.0-2.0,go_nogo_deval,469,,<img class = center src='/static/experiments/go_nogo_deval/images/purple_triangle.png'></img>,32,850,test,purple_triangle,nogo1,-1,0,0,,,,,,,-1,-1,1400,0,ITI,poldrack-single-stim,63,169734,0.0-6.0-3.0,go_nogo_deval,469,,<div></div>,32,1400,test,,,,,,,,,,,,-1,-1,500,0,fixation,poldrack-single-stim,64,170236,0.0-6.0-4.0,go_nogo_deval,469,,<div class = centerbox><div class = fixation>+</div></div>,none,500,test,,,,,,,,,,,,-1,-1,850,0,stim,poldrack-single-stim,65,171088,0.0-6.0-5.0,go_nogo_deval,469,,<img class = center src='/static/experiments/go_nogo_deval/images/red_pentagon.png'></img>,32,850,test,red_pentagon,nogo2,-1,1,0,,,,,,,-1,-1,1400,0,ITI,poldrack-single-stim,66,172490,0.0-6.0-6.0,go_nogo_deval,469,,<div></div>,32,1400,test,,,,,,,,,,,,-1,-1,500,0,fixation,poldrack-single-stim,67,172991,0.0-6.0-7.0,go_nogo_deval,469,,<div class = centerbox><div class = fixation>+</div></div>,none,500,test,,,,,,,,,,,,-1,-1,850,0,stim,poldrack-single-stim,68,173843,0.0-6.0-8.0,go_nogo_deval,469,,<img class = center src='/static/experiments/go_nogo_deval/images/red_pentagon.png'></img>,32,850,test,red_pentagon,nogo2,-1,2,0,,,,,,,-1,-1,1400,0,ITI,poldrack-single-stim,69,175244,0.0-6.0-9.0,go_nogo_deval,469,,<div></div>,32,1400,test,,,,,,,,,,,,-1,-1,500,0,fixation,poldrack-single-stim,70,175746,0.0-6.0-10.0,go_nogo_deval,469,,<div class = centerbox><div class = fixation>+</div></div>,none,500,test,,,,,,,,,,,,482,32,850,0,stim,poldrack-single-stim,71,176598,0.0-6.0-11.0,go_nogo_deval,469,,<img class = center src='/static/experiments/go_nogo_deval/images/blue_rhombus.png'></img>,32,850,test,blue_rhombus,go2,32,3,0,,,,,,,-1,-1,1400,0,ITI,poldrack-single-stim,72,178000,0.0-6.0-12.0,go_nogo_deval,469,,<div></div>,32,1400,test,,,,,,,,,,,,-1,-1,500,0,fixation,poldrack-single-stim,73,178502,0.0-6.0-13.0,go_nogo_deval,469,,<div class = centerbox><div class = fixation>+</div></div>,none,500,test,,,,,,,,,,,,336,32,850,0,stim,poldrack-single-stim,74,179354,0.0-6.0-14.0,go_nogo_deval,469,,<img class = center src='/static/experiments/go_nogo_deval/images/green_circle.png'></img>,32,850,test,green_circle,go1,32,4,0,,,,,,,-1,-1,1400,0,ITI,poldrack-single-stim,75,180755,0.0-6.0-15.0,go_nogo_deval,469,,<div></div>,32,1400,test,,,,,,,,,,,,-1,-1,500,0,fixation,poldrack-single-stim,76,181256,0.0-6.0-16.0,go_nogo_deval,469,,<div class = centerbox><div class = fixation>+</div></div>,none,500,test,,,,,,,,,,,,440,32,850,0,stim,poldrack-single-stim,77,182108,0.0-6.0-17.0,go_nogo_deval,469,,<img class = center src='/static/experiments/go_nogo_deval/images/blue_rhombus.png'></img>,32,850,test,blue_rhombus,go2,32,5,0,,,,,,,-1,-1,1400,0,ITI,poldrack-single-stim,78,183509,0.0-6.0-18.0,go_nogo_deval,469,,<div></div>,32,1400,test,,,,,,,,,,,,-1,-1,500,0,fixation,poldrack-single-stim,79,184011,0.0-6.0-19.0,go_nogo_deval,469,,<div class = centerbox><div class = fixation>+</div></div>,none,500,test,,,,,,,,,,,,-1,-1,850,0,stim,poldrack-single-stim,80,184863,0.0-6.0-20.0,go_nogo_deval,469,,<img class = center src='/static/experiments/go_nogo_deval/images/red_pentagon.png'></img>,32,850,test,red_pentagon,nogo2,-1,6,0,,,,,,,-1,-1,1400,0,ITI,poldrack-single-stim,81,186264,0.0-6.0-21.0,go_nogo_deval,469,,<div></div>,32,1400,test,,,,,,,,,,,,-1,-1,500,0,fixation,poldrack-single-stim,82,186765,0.0-6.0-22.0,go_nogo_deval,469,,<div class = centerbox><div class = fixation>+</div></div>,none,500,test,,,,,,,,,,,,466,32,850,0,stim,poldrack-single-stim,83,187617,0.0-6.0-23.0,go_nogo_deval,469,,<img class = center src='/static/experiments/go_nogo_deval/images/blue_rhombus.png'></img>,32,850,test,blue_rhombus,go2,32,7,0,,,,,,,-1,-1,1400,0,ITI,poldrack-single-stim,84,189019,0.0-6.0-24.0,go_nogo_deval,469,,<div></div>,32,1400,test,,,,,,,,,,,,-1,-1,500,0,fixation,poldrack-single-stim,85,189521,0.0-6.0-25.0,go_nogo_deval,469,,<div class = centerbox><div class = fixation>+</div></div>,none,500,test,,,,,,,,,,,,354,32,850,0,stim,poldrack-single-stim,86,190372,0.0-6.0-26.0,go_nogo_deval,469,,<img class = center src='/static/experiments/go_nogo_deval/images/green_circle.png'></img>,32,850,test,green_circle,go1,32,8,0,,,,,,,-1,-1,1400,0,ITI,poldrack-single-stim,87,191775,0.0-6.0-27.0,go_nogo_deval,469,,<div></div>,32,1400,test,,,,,,,,,,,,-1,-1,500,0,fixation,poldrack-single-stim,88,192276,0.0-6.0-28.0,go_nogo_deval,469,,<div class = centerbox><div class = fixation>+</div></div>,none,500,test,,,,,,,,,,,,365,32,850,0,stim,poldrack-single-stim,89,193127,0.0-6.0-29.0,go_nogo_deval,469,,<img class = center src='/static/experiments/go_nogo_deval/images/green_circle.png'></img>,32,850,test,green_circle,go1,32,9,0,,,,,,,-1,-1,1400,0,ITI,poldrack-single-stim,90,194529,0.0-6.0-30.0,go_nogo_deval,469,,<div></div>,32,1400,test,,,,,,,,,,,,-1,-1,500,0,fixation,poldrack-single-stim,91,195031,0.0-6.0-31.0,go_nogo_deval,469,,<div class = centerbox><div class = fixation>+</div></div>,none,500,test,,,,,,,,,,,,-1,-1,850,0,stim,poldrack-single-stim,92,195883,0.0-6.0-32.0,go_nogo_deval,469,,<img class = center src='/static/experiments/go_nogo_deval/images/purple_triangle.png'></img>,32,850,test,purple_triangle,nogo1,-1,10,0,,,,,,,-1,-1,1400,0,ITI,poldrack-single-stim,93,197284,0.0-6.0-33.0,go_nogo_deval,469,,<div></div>,32,1400,test,,,,,,,,,,,,-1,-1,500,0,fixation,poldrack-single-stim,94,197785,0.0-6.0-34.0,go_nogo_deval,469,,<div class = centerbox><div class = fixation>+</div></div>,none,500,test,,,,,,,,,,,,-1,-1,850,0,stim,poldrack-single-stim,95,198637,0.0-6.0-35.0,go_nogo_deval,469,,<img class = center src='/static/experiments/go_nogo_deval/images/purple_triangle.png'></img>,32,850,test,purple_triangle,nogo1,-1,11,0,,,,,,,-1,-1,1400,0,ITI,poldrack-single-stim,96,200039,0.0-6.0-36.0,go_nogo_deval,469,,<div></div>,32,1400,test,,,,,,,,,,,,-1,-1,500,0,fixation,poldrack-single-stim,97,200540,0.0-6.0-37.0,go_nogo_deval,469,,<div class = centerbox><div class = fixation>+</div></div>,none,500,test,,,,,,,,,,,,405,32,850,0,stim,poldrack-single-stim,98,201392,0.0-6.0-38.0,go_nogo_deval,469,,<img class = center src='/static/experiments/go_nogo_deval/images/green_circle.png'></img>,32,850,test,green_circle,go1,32,12,0,,,,,,,-1,-1,1400,0,ITI,poldrack-single-stim,99,202794,0.0-6.0-39.0,go_nogo_deval,469,,<div></div>,32,1400,test,,,,,,,,,,,,-1,-1,500,0,fixation,poldrack-single-stim,100,203296,0.0-6.0-40.0,go_nogo_deval,469,,<div class = centerbox><div class = fixation>+</div></div>,none,500,test,,,,,,,,,,,,405,32,850,0,stim,poldrack-single-stim,101,204148,0.0-6.0-41.0,go_nogo_deval,469,,<img class = center src='/static/experiments/go_nogo_deval/images/green_circle.png'></img>,32,850,test,green_circle,go1,32,13,0,,,,,,,-1,-1,1400,0,ITI,poldrack-single-stim,102,205550,0.0-6.0-42.0,go_nogo_deval,469,,<div></div>,32,1400,test,,,,,,,,,,,,-1,-1,500,0,fixation,poldrack-single-stim,103,206050,0.0-6.0-43.0,go_nogo_deval,469,,<div class = centerbox><div class = fixation>+</div></div>,none,500,test,,,,,,,,,,,,-1,-1,850,0,stim,poldrack-single-stim,104,206902,0.0-6.0-44.0,go_nogo_deval,469,,<img class = center src='/static/experiments/go_nogo_deval/images/red_pentagon.png'></img>,32,850,test,red_pentagon,nogo2,-1,14,0,,,,,,,-1,-1,1400,0,ITI,poldrack-single-stim,105,208303,0.0-6.0-45.0,go_nogo_deval,469,,<div></div>,32,1400,test,,,,,,,,,,,,-1,-1,500,0,fixation,poldrack-single-stim,106,208806,0.0-6.0-46.0,go_nogo_deval,469,,<div class = centerbox><div class = fixation>+</div></div>,none,500,test,,,,,,,,,,,,329,32,850,0,stim,poldrack-single-stim,107,209658,0.0-6.0-47.0,go_nogo_deval,469,,<img class = center src='/static/experiments/go_nogo_deval/images/blue_rhombus.png'></img>,32,850,test,blue_rhombus,go2,32,15,0,,,,,,,-1,-1,1400,0,ITI,poldrack-single-stim,108,211060,0.0-6.0-48.0,go_nogo_deval,469,,<div></div>,32,1400,test,,,,,,,,,,,,-1,-1,500,0,fixation,poldrack-single-stim,109,211562,0.0-6.0-49.0,go_nogo_deval,469,,<div class = centerbox><div class = fixation>+</div></div>,none,500,test,,,,,,,,,,,,464,32,850,0,stim,poldrack-single-stim,110,212414,0.0-6.0-50.0,go_nogo_deval,469,,<img class = center src='/static/experiments/go_nogo_deval/images/blue_rhombus.png'></img>,32,850,test,blue_rhombus,go2,32,16,0,,,,,,,-1,-1,1400,0,ITI,poldrack-single-stim,111,213815,0.0-6.0-51.0,go_nogo_deval,469,,<div></div>,32,1400,test,,,,,,,,,,,,-1,-1,500,0,fixation,poldrack-single-stim,112,214316,0.0-6.0-52.0,go_nogo_deval,469,,<div class = centerbox><div class = fixation>+</div></div>,none,500,test,,,,,,,,,,,,376,32,850,0,stim,poldrack-single-stim,113,215168,0.0-6.0-53.0,go_nogo_deval,469,,<img class = center src='/static/experiments/go_nogo_deval/images/green_circle.png'></img>,32,850,test,green_circle,go1,32,17,0,,,,,,,-1,-1,1400,0,ITI,poldrack-single-stim,114,216570,0.0-6.0-54.0,go_nogo_deval,469,,<div></div>,32,1400,test,,,,,,,,,,,,-1,-1,500,0,fixation,poldrack-single-stim,115,217071,0.0-6.0-55.0,go_nogo_deval,469,,<div class = centerbox><div class = fixation>+</div></div>,none,500,test,,,,,,,,,,,,489,32,850,0,stim,poldrack-single-stim,116,217923,0.0-6.0-56.0,go_nogo_deval,469,,<img class = center src='/static/experiments/go_nogo_deval/images/blue_rhombus.png'></img>,32,850,test,blue_rhombus,go2,32,18,0,,,,,,,-1,-1,1400,0,ITI,poldrack-single-stim,117,219325,0.0-6.0-57.0,go_nogo_deval,469,,<div></div>,32,1400,test,,,,,,,,,,,,-1,-1,500,0,fixation,poldrack-single-stim,118,219827,0.0-6.0-58.0,go_nogo_deval,469,,<div class = centerbox><div class = fixation>+</div></div>,none,500,test,,,,,,,,,,,,-1,-1,850,0,stim,poldrack-single-stim,119,220679,0.0-6.0-59.0,go_nogo_deval,469,,<img class = center src='/static/experiments/go_nogo_deval/images/red_pentagon.png'></img>,32,850,test,red_pentagon,nogo2,-1,19,0,,,,,,,-1,-1,1400,0,ITI,poldrack-single-stim,120,222080,0.0-6.0-60.0,go_nogo_deval,469,,<div></div>,32,1400,test,,,,,,,,,,,,-1,-1,500,0,fixation,poldrack-single-stim,121,222580,0.0-6.0-61.0,go_nogo_deval,469,,<div class = centerbox><div class = fixation>+</div></div>,none,500,test,,,,,,,,,,,,459,32,850,0,stim,poldrack-single-stim,122,223432,0.0-6.0-62.0,go_nogo_deval,469,,<img class = center src='/static/experiments/go_nogo_deval/images/blue_rhombus.png'></img>,32,850,test,blue_rhombus,go2,32,20,0,,,,,,,-1,-1,1400,0,ITI,poldrack-single-stim,123,224834,0.0-6.0-63.0,go_nogo_deval,469,,<div></div>,32,1400,test,,,,,,,,,,,,-1,-1,500,0,fixation,poldrack-single-stim,124,225336,0.0-6.0-64.0,go_nogo_deval,469,,<div class = centerbox><div class = fixation>+</div></div>,none,500,test,,,,,,,,,,,,-1,-1,850,0,stim,poldrack-single-stim,125,226188,0.0-6.0-65.0,go_nogo_deval,469,,<img class = center src='/static/experiments/go_nogo_deval/images/purple_triangle.png'></img>,32,850,test,purple_triangle,nogo1,-1,21,0,,,,,,,-1,-1,1400,0,ITI,poldrack-single-stim,126,227590,0.0-6.0-66.0,go_nogo_deval,469,,<div></div>,32,1400,test,,,,,,,,,,,,-1,-1,500,0,fixation,poldrack-single-stim,127,228091,0.0-6.0-67.0,go_nogo_deval,469,,<div class = centerbox><div class = fixation>+</div></div>,none,500,test,,,,,,,,,,,,370,32,850,0,stim,poldrack-single-stim,128,228942,0.0-6.0-68.0,go_nogo_deval,469,,<img class = center src='/static/experiments/go_nogo_deval/images/blue_rhombus.png'></img>,32,850,test,blue_rhombus,go2,32,22,0,,,,,,,-1,-1,1400,0,ITI,poldrack-single-stim,129,230344,0.0-6.0-69.0,go_nogo_deval,469,,<div></div>,32,1400,test,,,,,,,,,,,,-1,-1,500,0,fixation,poldrack-single-stim,130,230846,0.0-6.0-70.0,go_nogo_deval,469,,<div class = centerbox><div class = fixation>+</div></div>,none,500,test,,,,,,,,,,,,361,32,850,0,stim,poldrack-single-stim,131,231698,0.0-6.0-71.0,go_nogo_deval,469,,<img class = center src='/static/experiments/go_nogo_deval/images/green_circle.png'></img>,32,850,test,green_circle,go1,32,23,0,,,,,,,-1,-1,1400,0,ITI,poldrack-single-stim,132,233100,0.0-6.0-72.0,go_nogo_deval,469,,<div></div>,32,1400,test,,,,,,,,,,,,-1,-1,500,0,fixation,poldrack-single-stim,133,233602,0.0-6.0-73.0,go_nogo_deval,469,,<div class = centerbox><div class = fixation>+</div></div>,none,500,test,,,,,,,,,,,,-1,-1,850,0,stim,poldrack-single-stim,134,234454,0.0-6.0-74.0,go_nogo_deval,469,,<img class = center src='/static/experiments/go_nogo_deval/images/purple_triangle.png'></img>,32,850,test,purple_triangle,nogo1,-1,24,0,,,,,,,-1,-1,1400,0,ITI,poldrack-single-stim,135,235856,0.0-6.0-75.0,go_nogo_deval,469,,<div></div>,32,1400,test,,,,,,,,,,,,-1,-1,500,0,fixation,poldrack-single-stim,136,236357,0.0-6.0-76.0,go_nogo_deval,469,,<div class = centerbox><div class = fixation>+</div></div>,none,500,test,,,,,,,,,,,,487,32,850,0,stim,poldrack-single-stim,137,237208,0.0-6.0-77.0,go_nogo_deval,469,,<img class = center src='/static/experiments/go_nogo_deval/images/green_circle.png'></img>,32,850,test,green_circle,go1,32,25,0,,,,,,,-1,-1,1400,0,ITI,poldrack-single-stim,138,238610,0.0-6.0-78.0,go_nogo_deval,469,,<div></div>,32,1400,test,,,,,,,,,,,,-1,-1,500,0,fixation,poldrack-single-stim,139,239111,0.0-6.0-79.0,go_nogo_deval,469,,<div class = centerbox><div class = fixation>+</div></div>,none,500,test,,,,,,,,,,,,488,32,850,0,stim,poldrack-single-stim,140,239963,0.0-6.0-80.0,go_nogo_deval,469,,<img class = center src='/static/experiments/go_nogo_deval/images/green_circle.png'></img>,32,850,test,green_circle,go1,32,26,0,,,,,,,-1,-1,1400,0,ITI,poldrack-single-stim,141,241365,0.0-6.0-81.0,go_nogo_deval,469,,<div></div>,32,1400,test,,,,,,,,,,,,-1,-1,500,0,fixation,poldrack-single-stim,142,241866,0.0-6.0-82.0,go_nogo_deval,469,,<div class = centerbox><div class = fixation>+</div></div>,none,500,test,,,,,,,,,,,,467,32,850,0,stim,poldrack-single-stim,143,242717,0.0-6.0-83.0,go_nogo_deval,469,,<img class = center src='/static/experiments/go_nogo_deval/images/blue_rhombus.png'></img>,32,850,test,blue_rhombus,go2,32,27,0,,,,,,,-1,-1,1400,0,ITI,poldrack-single-stim,144,244119,0.0-6.0-84.0,go_nogo_deval,469,,<div></div>,32,1400,test,,,,,,,,,,,,-1,-1,500,0,fixation,poldrack-single-stim,145,244621,0.0-6.0-85.0,go_nogo_deval,469,,<div class = centerbox><div class = fixation>+</div></div>,none,500,test,,,,,,,,,,,,-1,-1,850,0,stim,poldrack-single-stim,146,245473,0.0-6.0-86.0,go_nogo_deval,469,,<img class = center src='/static/experiments/go_nogo_deval/images/purple_triangle.png'></img>,32,850,test,purple_triangle,nogo1,-1,28,0,,,,,,,-1,-1,1400,0,ITI,poldrack-single-stim,147,246873,0.0-6.0-87.0,go_nogo_deval,469,,<div></div>,32,1400,test,,,,,,,,,,,,-1,-1,500,0,fixation,poldrack-single-stim,148,247375,0.0-6.0-88.0,go_nogo_deval,469,,<div class = centerbox><div class = fixation>+</div></div>,none,500,test,,,,,,,,,,,,-1,-1,850,0,stim,poldrack-single-stim,149,248226,0.0-6.0-89.0,go_nogo_deval,469,,<img class = center src='/static/experiments/go_nogo_deval/images/red_pentagon.png'></img>,32,850,test,red_pentagon,nogo2,-1,29,0,,,,,,,-1,-1,1400,0,ITI,poldrack-single-stim,150,249628,0.0-6.0-90.0,go_nogo_deval,469,,<div></div>,32,1400,test,,,,,,,,,,,,-1,-1,500,0,fixation,poldrack-single-stim,151,250129,0.0-6.0-91.0,go_nogo_deval,469,,<div class = centerbox><div class = fixation>+</div></div>,none,500,test,,,,,,,,,,,,372,32,850,0,stim,poldrack-single-stim,152,250981,0.0-6.0-92.0,go_nogo_deval,469,,<img class = center src='/static/experiments/go_nogo_deval/images/blue_rhombus.png'></img>,32,850,test,blue_rhombus,go2,32,30,0,,,,,,,-1,-1,1400,0,ITI,poldrack-single-stim,153,252383,0.0-6.0-93.0,go_nogo_deval,469,,<div></div>,32,1400,test,,,,,,,,,,,,-1,-1,500,0,fixation,poldrack-single-stim,154,252885,0.0-6.0-94.0,go_nogo_deval,469,,<div class = centerbox><div class = fixation>+</div></div>,none,500,test,,,,,,,,,,,,-1,-1,850,0,stim,poldrack-single-stim,155,253737,0.0-6.0-95.0,go_nogo_deval,469,,<img class = center src='/static/experiments/go_nogo_deval/images/red_pentagon.png'></img>,32,850,test,red_pentagon,nogo2,-1,31,0,,,,,,,-1,-1,1400,0,ITI,poldrack-single-stim,156,255139,0.0-6.0-96.0,go_nogo_deval,469,,<div></div>,32,1400,test,,,,,,,,,,,,-1,-1,500,0,fixation,poldrack-single-stim,157,255640,0.0-6.0-97.0,go_nogo_deval,469,,<div class = centerbox><div class = fixation>+</div></div>,none,500,test,,,,,,,,,,,,575,32,850,0,stim,poldrack-single-stim,158,256492,0.0-6.0-98.0,go_nogo_deval,469,,<img class = center src='/static/experiments/go_nogo_deval/images/blue_rhombus.png'></img>,32,850,test,blue_rhombus,go2,32,32,0,,,,,,,-1,-1,1400,0,ITI,poldrack-single-stim,159,257893,0.0-6.0-99.0,go_nogo_deval,469,,<div></div>,32,1400,test,,,,,,,,,,,,-1,-1,500,0,fixation,poldrack-single-stim,160,258395,0.0-6.0-100.0,go_nogo_deval,469,,<div class = centerbox><div class = fixation>+</div></div>,none,500,test,,,,,,,,,,,,375,32,850,0,stim,poldrack-single-stim,161,259247,0.0-6.0-101.0,go_nogo_deval,469,,<img class = center src='/static/experiments/go_nogo_deval/images/blue_rhombus.png'></img>,32,850,test,blue_rhombus,go2,32,33,0,,,,,,,-1,-1,1400,0,ITI,poldrack-single-stim,162,260648,0.0-6.0-102.0,go_nogo_deval,469,,<div></div>,32,1400,test,,,,,,,,,,,,-1,-1,500,0,fixation,poldrack-single-stim,163,261150,0.0-6.0-103.0,go_nogo_deval,469,,<div class = centerbox><div class = fixation>+</div></div>,none,500,test,,,,,,,,,,,,321,32,850,0,stim,poldrack-single-stim,164,262002,0.0-6.0-104.0,go_nogo_deval,469,,<img class = center src='/static/experiments/go_nogo_deval/images/green_circle.png'></img>,32,850,test,green_circle,go1,32,34,0,,,,,,,-1,-1,1400,0,ITI,poldrack-single-stim,165,263403,0.0-6.0-105.0,go_nogo_deval,469,,<div></div>,32,1400,test,,,,,,,,,,,,-1,-1,500,0,fixation,poldrack-single-stim,166,263904,0.0-6.0-106.0,go_nogo_deval,469,,<div class = centerbox><div class = fixation>+</div></div>,none,500,test,,,,,,,,,,,,377,32,850,0,stim,poldrack-single-stim,167,264756,0.0-6.0-107.0,go_nogo_deval,469,,<img class = center src='/static/experiments/go_nogo_deval/images/green_circle.png'></img>,32,850,test,green_circle,go1,32,35,0,,,,,,,-1,-1,1400,0,ITI,poldrack-single-stim,168,266158,0.0-6.0-108.0,go_nogo_deval,469,,<div></div>,32,1400,test,,,,,,,,,,,,-1,-1,500,0,fixation,poldrack-single-stim,169,266660,0.0-6.0-109.0,go_nogo_deval,469,,<div class = centerbox><div class = fixation>+</div></div>,none,500,test,,,,,,,,,,,,-1,-1,850,0,stim,poldrack-single-stim,170,267512,0.0-6.0-110.0,go_nogo_deval,469,,<img class = center src='/static/experiments/go_nogo_deval/images/purple_triangle.png'></img>,32,850,test,purple_triangle,nogo1,-1,36,0,,,,,,,-1,-1,1400,0,ITI,poldrack-single-stim,171,268914,0.0-6.0-111.0,go_nogo_deval,469,,<div></div>,32,1400,test,,,,,,,,,,,,-1,-1,500,0,fixation,poldrack-single-stim,172,269416,0.0-6.0-112.0,go_nogo_deval,469,,<div class = centerbox><div class = fixation>+</div></div>,none,500,test,,,,,,,,,,,,-1,-1,850,0,stim,poldrack-single-stim,173,270267,0.0-6.0-113.0,go_nogo_deval,469,,<img class = center src='/static/experiments/go_nogo_deval/images/purple_triangle.png'></img>,32,850,test,purple_triangle,nogo1,-1,37,0,,,,,,,-1,-1,1400,0,ITI,poldrack-single-stim,174,271669,0.0-6.0-114.0,go_nogo_deval,469,,<div></div>,32,1400,test,,,,,,,,,,,,-1,-1,500,0,fixation,poldrack-single-stim,175,272170,0.0-6.0-115.0,go_nogo_deval,469,,<div class = centerbox><div class = fixation>+</div></div>,none,500,test,,,,,,,,,,,,393,32,850,0,stim,poldrack-single-stim,176,273022,0.0-6.0-116.0,go_nogo_deval,469,,<img class = center src='/static/experiments/go_nogo_deval/images/green_circle.png'></img>,32,850,test,green_circle,go1,32,38,0,,,,,,,-1,-1,1400,0,ITI,poldrack-single-stim,177,274423,0.0-6.0-117.0,go_nogo_deval,469,,<div></div>,32,1400,test,,,,,,,,,,,,-1,-1,500,0,fixation,poldrack-single-stim,178,274925,0.0-6.0-118.0,go_nogo_deval,469,,<div class = centerbox><div class = fixation>+</div></div>,none,500,test,,,,,,,,,,,,-1,-1,850,0,stim,poldrack-single-stim,179,275777,0.0-6.0-119.0,go_nogo_deval,469,,<img class = center src='/static/experiments/go_nogo_deval/images/red_pentagon.png'></img>,32,850,test,red_pentagon,nogo2,-1,39,0,,,,,,,-1,-1,1400,0,ITI,poldrack-single-stim,180,277179,0.0-6.0-120.0,go_nogo_deval,469,,<div></div>,32,1400,test,,,,,,,,,,,,-1,-1,500,0,fixation,poldrack-single-stim,181,277681,0.0-6.0-121.0,go_nogo_deval,469,,<div class = centerbox><div class = fixation>+</div></div>,none,500,test,,,,,,,,,,,,417,32,850,0,stim,poldrack-single-stim,182,278532,0.0-6.0-122.0,go_nogo_deval,469,,<img class = center src='/static/experiments/go_nogo_deval/images/blue_rhombus.png'></img>,32,850,test,blue_rhombus,go2,32,40,0,,,,,,,-1,-1,1400,0,ITI,poldrack-single-stim,183,279934,0.0-6.0-123.0,go_nogo_deval,469,,<div></div>,32,1400,test,,,,,,,,,,,,-1,-1,500,0,fixation,poldrack-single-stim,184,280435,0.0-6.0-124.0,go_nogo_deval,469,,<div class = centerbox><div class = fixation>+</div></div>,none,500,test,,,,,,,,,,,,385,32,850,0,stim,poldrack-single-stim,185,281287,0.0-6.0-125.0,go_nogo_deval,469,,<img class = center src='/static/experiments/go_nogo_deval/images/blue_rhombus.png'></img>,32,850,test,blue_rhombus,go2,32,41,0,,,,,,,-1,-1,1400,0,ITI,poldrack-single-stim,186,282688,0.0-6.0-126.0,go_nogo_deval,469,,<div></div>,32,1400,test,,,,,,,,,,,,-1,-1,500,0,fixation,poldrack-single-stim,187,283190,0.0-6.0-127.0,go_nogo_deval,469,,<div class = centerbox><div class = fixation>+</div></div>,none,500,test,,,,,,,,,,,,308,32,850,0,stim,poldrack-single-stim,188,284041,0.0-6.0-128.0,go_nogo_deval,469,,<img class = center src='/static/experiments/go_nogo_deval/images/green_circle.png'></img>,32,850,test,green_circle,go1,32,42,0,,,,,,,-1,-1,1400,0,ITI,poldrack-single-stim,189,285443,0.0-6.0-129.0,go_nogo_deval,469,,<div></div>,32,1400,test,,,,,,,,,,,,-1,-1,500,0,fixation,poldrack-single-stim,190,285944,0.0-6.0-130.0,go_nogo_deval,469,,<div class = centerbox><div class = fixation>+</div></div>,none,500,test,,,,,,,,,,,,377,32,850,0,stim,poldrack-single-stim,191,286796,0.0-6.0-131.0,go_nogo_deval,469,,<img class = center src='/static/experiments/go_nogo_deval/images/blue_rhombus.png'></img>,32,850,test,blue_rhombus,go2,32,43,0,,,,,,,-1,-1,1400,0,ITI,poldrack-single-stim,192,288197,0.0-6.0-132.0,go_nogo_deval,469,,<div></div>,32,1400,test,,,,,,,,,,,,-1,-1,500,0,fixation,poldrack-single-stim,193,288699,0.0-6.0-133.0,go_nogo_deval,469,,<div class = centerbox><div class = fixation>+</div></div>,none,500,test,,,,,,,,,,,,368,32,850,0,stim,poldrack-single-stim,194,289550,0.0-6.0-134.0,go_nogo_deval,469,,<img class = center src='/static/experiments/go_nogo_deval/images/green_circle.png'></img>,32,850,test,green_circle,go1,32,44,0,,,,,,,-1,-1,1400,0,ITI,poldrack-single-stim,195,290951,0.0-6.0-135.0,go_nogo_deval,469,,<div></div>,32,1400,test,,,,,,,,,,,,-1,-1,500,0,fixation,poldrack-single-stim,196,291453,0.0-6.0-136.0,go_nogo_deval,469,,<div class = centerbox><div class = fixation>+</div></div>,none,500,test,,,,,,,,,,,,380,32,850,0,stim,poldrack-single-stim,197,292305,0.0-6.0-137.0,go_nogo_deval,469,,<img class = center src='/static/experiments/go_nogo_deval/images/blue_rhombus.png'></img>,32,850,test,blue_rhombus,go2,32,45,0,,,,,,,-1,-1,1400,0,ITI,poldrack-single-stim,198,293706,0.0-6.0-138.0,go_nogo_deval,469,,<div></div>,32,1400,test,,,,,,,,,,,,-1,-1,500,0,fixation,poldrack-single-stim,199,294208,0.0-6.0-139.0,go_nogo_deval,469,,<div class = centerbox><div class = fixation>+</div></div>,none,500,test,,,,,,,,,,,,349,32,850,0,stim,poldrack-single-stim,200,295058,0.0-6.0-140.0,go_nogo_deval,469,,<img class = center src='/static/experiments/go_nogo_deval/images/green_circle.png'></img>,32,850,test,green_circle,go1,32,46,0,,,,,,,-1,-1,1400,0,ITI,poldrack-single-stim,201,296460,0.0-6.0-141.0,go_nogo_deval,469,,<div></div>,32,1400,test,,,,,,,,,,,,-1,-1,500,0,fixation,poldrack-single-stim,202,296962,0.0-6.0-142.0,go_nogo_deval,469,,<div class = centerbox><div class = fixation>+</div></div>,none,500,test,,,,,,,,,,,,340,32,850,0,stim,poldrack-single-stim,203,297814,0.0-6.0-143.0,go_nogo_deval,469,,<img class = center src='/static/experiments/go_nogo_deval/images/green_circle.png'></img>,32,850,test,green_circle,go1,32,47,0,,,,,,,-1,-1,1400,0,ITI,poldrack-single-stim,204,299215,0.0-6.0-144.0,go_nogo_deval,469,,<div></div>,32,1400,test,,,,,,,,,,,,7208,13,7208,0,practice-no-stop-feedback,poldrack-single-stim,205,306426,0.0-6.1-0.1,go_nogo_deval,469,,<div class = centerbox><p class = block-text><br>Please take this time to read your feedback and to take a short break! Press enter to continue</p><p class = block-text><strong>Average reaction time:  403 ms. Accuracy: 100%</strong></p></div>,13,7208,,,,,,,,,,,,,-1,-1,500,0,fixation,poldrack-single-stim,206,306928,0.0-6.1-1.1,go_nogo_deval,469,,<div class = centerbox><div class = fixation>+</div></div>,none,500,test,,,,,,,,,,,,464,32,850,0,stim,poldrack-single-stim,207,307780,0.0-6.1-2.1,go_nogo_deval,469,,<img class = center src='/static/experiments/go_nogo_deval/images/green_circle.png'></img>,32,850,test,green_circle,go1,32,0,1,,,,,,,-1,-1,1400,0,ITI,poldrack-single-stim,208,309181,0.0-6.1-3.1,go_nogo_deval,469,,<div></div>,32,1400,test,,,,,,,,,,,,-1,-1,500,0,fixation,poldrack-single-stim,209,309683,0.0-6.1-4.1,go_nogo_deval,469,,<div class = centerbox><div class = fixation>+</div></div>,none,500,test,,,,,,,,,,,,-1,-1,850,0,stim,poldrack-single-stim,210,310534,0.0-6.1-5.1,go_nogo_deval,469,,<img class = center src='/static/experiments/go_nogo_deval/images/purple_triangle.png'></img>,32,850,test,purple_triangle,nogo1,-1,1,1,,,,,,,-1,-1,1400,0,ITI,poldrack-single-stim,211,311936,0.0-6.1-6.1,go_nogo_deval,469,,<div></div>,32,1400,test,,,,,,,,,,,,-1,-1,500,0,fixation,poldrack-single-stim,212,312438,0.0-6.1-7.1,go_nogo_deval,469,,<div class = centerbox><div class = fixation>+</div></div>,none,500,test,,,,,,,,,,,,366,32,850,0,stim,poldrack-single-stim,213,313289,0.0-6.1-8.1,go_nogo_deval,469,,<img class = center src='/static/experiments/go_nogo_deval/images/green_circle.png'></img>,32,850,test,green_circle,go1,32,2,1,,,,,,,-1,-1,1400,0,ITI,poldrack-single-stim,214,314690,0.0-6.1-9.1,go_nogo_deval,469,,<div></div>,32,1400,test,,,,,,,,,,,,-1,-1,500,0,fixation,poldrack-single-stim,215,315192,0.0-6.1-10.1,go_nogo_deval,469,,<div class = centerbox><div class = fixation>+</div></div>,none,500,test,,,,,,,,,,,,313,32,850,0,stim,poldrack-single-stim,216,316044,0.0-6.1-11.1,go_nogo_deval,469,,<img class = center src='/static/experiments/go_nogo_deval/images/green_circle.png'></img>,32,850,test,green_circle,go1,32,3,1,,,,,,,-1,-1,1400,0,ITI,poldrack-single-stim,217,317446,0.0-6.1-12.1,go_nogo_deval,469,,<div></div>,32,1400,test,,,,,,,,,,,,-1,-1,500,0,fixation,poldrack-single-stim,218,317947,0.0-6.1-13.1,go_nogo_deval,469,,<div class = centerbox><div class = fixation>+</div></div>,none,500,test,,,,,,,,,,,,393,32,850,0,stim,poldrack-single-stim,219,318798,0.0-6.1-14.1,go_nogo_deval,469,,<img class = center src='/static/experiments/go_nogo_deval/images/blue_rhombus.png'></img>,32,850,test,blue_rhombus,go2,32,4,1,,,,,,,-1,-1,1400,0,ITI,poldrack-single-stim,220,320200,0.0-6.1-15.1,go_nogo_deval,469,,<div></div>,32,1400,test,,,,,,,,,,,,-1,-1,500,0,fixation,poldrack-single-stim,221,320701,0.0-6.1-16.1,go_nogo_deval,469,,<div class = centerbox><div class = fixation>+</div></div>,none,500,test,,,,,,,,,,,,372,32,850,0,stim,poldrack-single-stim,222,321553,0.0-6.1-17.1,go_nogo_deval,469,,<img class = center src='/static/experiments/go_nogo_deval/images/blue_rhombus.png'></img>,32,850,test,blue_rhombus,go2,32,5,1,,,,,,,-1,-1,1400,0,ITI,poldrack-single-stim,223,322955,0.0-6.1-18.1,go_nogo_deval,469,,<div></div>,32,1400,test,,,,,,,,,,,,-1,-1,500,0,fixation,poldrack-single-stim,224,323457,0.0-6.1-19.1,go_nogo_deval,469,,<div class = centerbox><div class = fixation>+</div></div>,none,500,test,,,,,,,,,,,,328,32,850,0,stim,poldrack-single-stim,225,324308,0.0-6.1-20.1,go_nogo_deval,469,,<img class = center src='/static/experiments/go_nogo_deval/images/blue_rhombus.png'></img>,32,850,test,blue_rhombus,go2,32,6,1,,,,,,,-1,-1,1400,0,ITI,poldrack-single-stim,226,325710,0.0-6.1-21.1,go_nogo_deval,469,,<div></div>,32,1400,test,,,,,,,,,,,,-1,-1,500,0,fixation,poldrack-single-stim,227,326212,0.0-6.1-22.1,go_nogo_deval,469,,<div class = centerbox><div class = fixation>+</div></div>,none,500,test,,,,,,,,,,,,419,32,850,0,stim,poldrack-single-stim,228,327064,0.0-6.1-23.1,go_nogo_deval,469,,<img class = center src='/static/experiments/go_nogo_deval/images/blue_rhombus.png'></img>,32,850,test,blue_rhombus,go2,32,7,1,,,,,,,-1,-1,1400,0,ITI,poldrack-single-stim,229,328466,0.0-6.1-24.1,go_nogo_deval,469,,<div></div>,32,1400,test,,,,,,,,,,,,-1,-1,500,0,fixation,poldrack-single-stim,230,328966,0.0-6.1-25.1,go_nogo_deval,469,,<div class = centerbox><div class = fixation>+</div></div>,none,500,test,,,,,,,,,,,,409,32,850,0,stim,poldrack-single-stim,231,329817,0.0-6.1-26.1,go_nogo_deval,469,,<img class = center src='/static/experiments/go_nogo_deval/images/green_circle.png'></img>,32,850,test,green_circle,go1,32,8,1,,,,,,,-1,-1,1400,0,ITI,poldrack-single-stim,232,331219,0.0-6.1-27.1,go_nogo_deval,469,,<div></div>,32,1400,test,,,,,,,,,,,,-1,-1,500,0,fixation,poldrack-single-stim,233,331721,0.0-6.1-28.1,go_nogo_deval,469,,<div class = centerbox><div class = fixation>+</div></div>,none,500,test,,,,,,,,,,,,501,32,850,0,stim,poldrack-single-stim,234,332573,0.0-6.1-29.1,go_nogo_deval,469,,<img class = center src='/static/experiments/go_nogo_deval/images/blue_rhombus.png'></img>,32,850,test,blue_rhombus,go2,32,9,1,,,,,,,-1,-1,1400,0,ITI,poldrack-single-stim,235,333974,0.0-6.1-30.1,go_nogo_deval,469,,<div></div>,32,1400,test,,,,,,,,,,,,-1,-1,500,0,fixation,poldrack-single-stim,236,334475,0.0-6.1-31.1,go_nogo_deval,469,,<div class = centerbox><div class = fixation>+</div></div>,none,500,test,,,,,,,,,,,,-1,-1,850,0,stim,poldrack-single-stim,237,335327,0.0-6.1-32.1,go_nogo_deval,469,,<img class = center src='/static/experiments/go_nogo_deval/images/red_pentagon.png'></img>,32,850,test,red_pentagon,nogo2,-1,10,1,,,,,,,-1,-1,1400,0,ITI,poldrack-single-stim,238,336729,0.0-6.1-33.1,go_nogo_deval,469,,<div></div>,32,1400,test,,,,,,,,,,,,-1,-1,500,0,fixation,poldrack-single-stim,239,337230,0.0-6.1-34.1,go_nogo_deval,469,,<div class = centerbox><div class = fixation>+</div></div>,none,500,test,,,,,,,,,,,,403,32,850,0,stim,poldrack-single-stim,240,338082,0.0-6.1-35.1,go_nogo_deval,469,,<img class = center src='/static/experiments/go_nogo_deval/images/green_circle.png'></img>,32,850,test,green_circle,go1,32,11,1,,,,,,,-1,-1,1400,0,ITI,poldrack-single-stim,241,339483,0.0-6.1-36.1,go_nogo_deval,469,,<div></div>,32,1400,test,,,,,,,,,,,,-1,-1,500,0,fixation,poldrack-single-stim,242,339985,0.0-6.1-37.1,go_nogo_deval,469,,<div class = centerbox><div class = fixation>+</div></div>,none,500,test,,,,,,,,,,,,-1,-1,850,0,stim,poldrack-single-stim,243,340837,0.0-6.1-38.1,go_nogo_deval,469,,<img class = center src='/static/experiments/go_nogo_deval/images/red_pentagon.png'></img>,32,850,test,red_pentagon,nogo2,-1,12,1,,,,,,,-1,-1,1400,0,ITI,poldrack-single-stim,244,342239,0.0-6.1-39.1,go_nogo_deval,469,,<div></div>,32,1400,test,,,,,,,,,,,,-1,-1,500,0,fixation,poldrack-single-stim,245,342741,0.0-6.1-40.1,go_nogo_deval,469,,<div class = centerbox><div class = fixation>+</div></div>,none,500,test,,,,,,,,,,,,-1,-1,850,0,stim,poldrack-single-stim,246,343592,0.0-6.1-41.1,go_nogo_deval,469,,<img class = center src='/static/experiments/go_nogo_deval/images/purple_triangle.png'></img>,32,850,test,purple_triangle,nogo1,-1,13,1,,,,,,,-1,-1,1400,0,ITI,poldrack-single-stim,247,344994,0.0-6.1-42.1,go_nogo_deval,469,,<div></div>,32,1400,test,,,,,,,,,,,,-1,-1,500,0,fixation,poldrack-single-stim,248,345494,0.0-6.1-43.1,go_nogo_deval,469,,<div class = centerbox><div class = fixation>+</div></div>,none,500,test,,,,,,,,,,,,363,32,850,0,stim,poldrack-single-stim,249,346346,0.0-6.1-44.1,go_nogo_deval,469,,<img class = center src='/static/experiments/go_nogo_deval/images/green_circle.png'></img>,32,850,test,green_circle,go1,32,14,1,,,,,,,-1,-1,1400,0,ITI,poldrack-single-stim,250,347748,0.0-6.1-45.1,go_nogo_deval,469,,<div></div>,32,1400,test,,,,,,,,,,,,-1,-1,500,0,fixation,poldrack-single-stim,251,348249,0.0-6.1-46.1,go_nogo_deval,469,,<div class = centerbox><div class = fixation>+</div></div>,none,500,test,,,,,,,,,,,,352,32,850,0,stim,poldrack-single-stim,252,349100,0.0-6.1-47.1,go_nogo_deval,469,,<img class = center src='/static/experiments/go_nogo_deval/images/blue_rhombus.png'></img>,32,850,test,blue_rhombus,go2,32,15,1,,,,,,,-1,-1,1400,0,ITI,poldrack-single-stim,253,350502,0.0-6.1-48.1,go_nogo_deval,469,,<div></div>,32,1400,test,,,,,,,,,,,,-1,-1,500,0,fixation,poldrack-single-stim,254,351003,0.0-6.1-49.1,go_nogo_deval,469,,<div class = centerbox><div class = fixation>+</div></div>,none,500,test,,,,,,,,,,,,-1,-1,850,0,stim,poldrack-single-stim,255,351855,0.0-6.1-50.1,go_nogo_deval,469,,<img class = center src='/static/experiments/go_nogo_deval/images/red_pentagon.png'></img>,32,850,test,red_pentagon,nogo2,-1,16,1,,,,,,,-1,-1,1400,0,ITI,poldrack-single-stim,256,353256,0.0-6.1-51.1,go_nogo_deval,469,,<div></div>,32,1400,test,,,,,,,,,,,,-1,-1,500,0,fixation,poldrack-single-stim,257,353758,0.0-6.1-52.1,go_nogo_deval,469,,<div class = centerbox><div class = fixation>+</div></div>,none,500,test,,,,,,,,,,,,-1,-1,850,0,stim,poldrack-single-stim,258,354609,0.0-6.1-53.1,go_nogo_deval,469,,<img class = center src='/static/experiments/go_nogo_deval/images/purple_triangle.png'></img>,32,850,test,purple_triangle,nogo1,-1,17,1,,,,,,,-1,-1,1400,0,ITI,poldrack-single-stim,259,356011,0.0-6.1-54.1,go_nogo_deval,469,,<div></div>,32,1400,test,,,,,,,,,,,,-1,-1,500,0,fixation,poldrack-single-stim,260,356513,0.0-6.1-55.1,go_nogo_deval,469,,<div class = centerbox><div class = fixation>+</div></div>,none,500,test,,,,,,,,,,,,415,32,850,0,stim,poldrack-single-stim,261,357365,0.0-6.1-56.1,go_nogo_deval,469,,<img class = center src='/static/experiments/go_nogo_deval/images/blue_rhombus.png'></img>,32,850,test,blue_rhombus,go2,32,18,1,,,,,,,-1,-1,1400,0,ITI,poldrack-single-stim,262,358767,0.0-6.1-57.1,go_nogo_deval,469,,<div></div>,32,1400,test,,,,,,,,,,,,-1,-1,500,0,fixation,poldrack-single-stim,263,359269,0.0-6.1-58.1,go_nogo_deval,469,,<div class = centerbox><div class = fixation>+</div></div>,none,500,test,,,,,,,,,,,,-1,-1,850,0,stim,poldrack-single-stim,264,360121,0.0-6.1-59.1,go_nogo_deval,469,,<img class = center src='/static/experiments/go_nogo_deval/images/red_pentagon.png'></img>,32,850,test,red_pentagon,nogo2,-1,19,1,,,,,,,-1,-1,1400,0,ITI,poldrack-single-stim,265,361523,0.0-6.1-60.1,go_nogo_deval,469,,<div></div>,32,1400,test,,,,,,,,,,,,-1,-1,500,0,fixation,poldrack-single-stim,266,362024,0.0-6.1-61.1,go_nogo_deval,469,,<div class = centerbox><div class = fixation>+</div></div>,none,500,test,,,,,,,,,,,,405,32,850,0,stim,poldrack-single-stim,267,362875,0.0-6.1-62.1,go_nogo_deval,469,,<img class = center src='/static/experiments/go_nogo_deval/images/green_circle.png'></img>,32,850,test,green_circle,go1,32,20,1,,,,,,,-1,-1,1400,0,ITI,poldrack-single-stim,268,364277,0.0-6.1-63.1,go_nogo_deval,469,,<div></div>,32,1400,test,,,,,,,,,,,,-1,-1,500,0,fixation,poldrack-single-stim,269,364779,0.0-6.1-64.1,go_nogo_deval,469,,<div class = centerbox><div class = fixation>+</div></div>,none,500,test,,,,,,,,,,,,406,32,850,0,stim,poldrack-single-stim,270,365631,0.0-6.1-65.1,go_nogo_deval,469,,<img class = center src='/static/experiments/go_nogo_deval/images/green_circle.png'></img>,32,850,test,green_circle,go1,32,21,1,,,,,,,-1,-1,1400,0,ITI,poldrack-single-stim,271,367033,0.0-6.1-66.1,go_nogo_deval,469,,<div></div>,32,1400,test,,,,,,,,,,,,-1,-1,500,0,fixation,poldrack-single-stim,272,367534,0.0-6.1-67.1,go_nogo_deval,469,,<div class = centerbox><div class = fixation>+</div></div>,none,500,test,,,,,,,,,,,,339,32,850,0,stim,poldrack-single-stim,273,368386,0.0-6.1-68.1,go_nogo_deval,469,,<img class = center src='/static/experiments/go_nogo_deval/images/green_circle.png'></img>,32,850,test,green_circle,go1,32,22,1,,,,,,,-1,-1,1400,0,ITI,poldrack-single-stim,274,369787,0.0-6.1-69.1,go_nogo_deval,469,,<div></div>,32,1400,test,,,,,,,,,,,,-1,-1,500,0,fixation,poldrack-single-stim,275,370288,0.0-6.1-70.1,go_nogo_deval,469,,<div class = centerbox><div class = fixation>+</div></div>,none,500,test,,,,,,,,,,,,421,32,850,0,stim,poldrack-single-stim,276,371140,0.0-6.1-71.1,go_nogo_deval,469,,<img class = center src='/static/experiments/go_nogo_deval/images/blue_rhombus.png'></img>,32,850,test,blue_rhombus,go2,32,23,1,,,,,,,-1,-1,1400,0,ITI,poldrack-single-stim,277,372542,0.0-6.1-72.1,go_nogo_deval,469,,<div></div>,32,1400,test,,,,,,,,,,,,-1,-1,500,0,fixation,poldrack-single-stim,278,373044,0.0-6.1-73.1,go_nogo_deval,469,,<div class = centerbox><div class = fixation>+</div></div>,none,500,test,,,,,,,,,,,,-1,-1,850,0,stim,poldrack-single-stim,279,373895,0.0-6.1-74.1,go_nogo_deval,469,,<img class = center src='/static/experiments/go_nogo_deval/images/purple_triangle.png'></img>,32,850,test,purple_triangle,nogo1,-1,24,1,,,,,,,-1,-1,1400,0,ITI,poldrack-single-stim,280,375297,0.0-6.1-75.1,go_nogo_deval,469,,<div></div>,32,1400,test,,,,,,,,,,,,-1,-1,500,0,fixation,poldrack-single-stim,281,375799,0.0-6.1-76.1,go_nogo_deval,469,,<div class = centerbox><div class = fixation>+</div></div>,none,500,test,,,,,,,,,,,,-1,-1,850,0,stim,poldrack-single-stim,282,376650,0.0-6.1-77.1,go_nogo_deval,469,,<img class = center src='/static/experiments/go_nogo_deval/images/red_pentagon.png'></img>,32,850,test,red_pentagon,nogo2,-1,25,1,,,,,,,-1,-1,1400,0,ITI,poldrack-single-stim,283,378052,0.0-6.1-78.1,go_nogo_deval,469,,<div></div>,32,1400,test,,,,,,,,,,,,-1,-1,500,0,fixation,poldrack-single-stim,284,378552,0.0-6.1-79.1,go_nogo_deval,469,,<div class = centerbox><div class = fixation>+</div></div>,none,500,test,,,,,,,,,,,,-1,-1,850,0,stim,poldrack-single-stim,285,379404,0.0-6.1-80.1,go_nogo_deval,469,,<img class = center src='/static/experiments/go_nogo_deval/images/purple_triangle.png'></img>,32,850,test,purple_triangle,nogo1,-1,26,1,,,,,,,-1,-1,1400,0,ITI,poldrack-single-stim,286,380806,0.0-6.1-81.1,go_nogo_deval,469,,<div></div>,32,1400,test,,,,,,,,,,,,-1,-1,500,0,fixation,poldrack-single-stim,287,381308,0.0-6.1-82.1,go_nogo_deval,469,,<div class = centerbox><div class = fixation>+</div></div>,none,500,test,,,,,,,,,,,,471,32,850,0,stim,poldrack-single-stim,288,382159,0.0-6.1-83.1,go_nogo_deval,469,,<img class = center src='/static/experiments/go_nogo_deval/images/green_circle.png'></img>,32,850,test,green_circle,go1,32,27,1,,,,,,,-1,-1,1400,0,ITI,poldrack-single-stim,289,383560,0.0-6.1-84.1,go_nogo_deval,469,,<div></div>,32,1400,test,,,,,,,,,,,,-1,-1,500,0,fixation,poldrack-single-stim,290,384061,0.0-6.1-85.1,go_nogo_deval,469,,<div class = centerbox><div class = fixation>+</div></div>,none,500,test,,,,,,,,,,,,-1,-1,850,0,stim,poldrack-single-stim,291,384913,0.0-6.1-86.1,go_nogo_deval,469,,<img class = center src='/static/experiments/go_nogo_deval/images/red_pentagon.png'></img>,32,850,test,red_pentagon,nogo2,-1,28,1,,,,,,,-1,-1,1400,0,ITI,poldrack-single-stim,292,386315,0.0-6.1-87.1,go_nogo_deval,469,,<div></div>,32,1400,test,,,,,,,,,,,,-1,-1,500,0,fixation,poldrack-single-stim,293,386816,0.0-6.1-88.1,go_nogo_deval,469,,<div class = centerbox><div class = fixation>+</div></div>,none,500,test,,,,,,,,,,,,-1,-1,850,0,stim,poldrack-single-stim,294,387667,0.0-6.1-89.1,go_nogo_deval,469,,<img class = center src='/static/experiments/go_nogo_deval/images/purple_triangle.png'></img>,32,850,test,purple_triangle,nogo1,-1,29,1,,,,,,,-1,-1,1400,0,ITI,poldrack-single-stim,295,389069,0.0-6.1-90.1,go_nogo_deval,469,,<div></div>,32,1400,test,,,,,,,,,,,,-1,-1,500,0,fixation,poldrack-single-stim,296,389571,0.0-6.1-91.1,go_nogo_deval,469,,<div class = centerbox><div class = fixation>+</div></div>,none,500,test,,,,,,,,,,,,398,32,850,0,stim,poldrack-single-stim,297,390423,0.0-6.1-92.1,go_nogo_deval,469,,<img class = center src='/static/experiments/go_nogo_deval/images/blue_rhombus.png'></img>,32,850,test,blue_rhombus,go2,32,30,1,,,,,,,-1,-1,1400,0,ITI,poldrack-single-stim,298,391824,0.0-6.1-93.1,go_nogo_deval,469,,<div></div>,32,1400,test,,,,,,,,,,,,-1,-1,500,0,fixation,poldrack-single-stim,299,392324,0.0-6.1-94.1,go_nogo_deval,469,,<div class = centerbox><div class = fixation>+</div></div>,none,500,test,,,,,,,,,,,,434,32,850,0,stim,poldrack-single-stim,300,393176,0.0-6.1-95.1,go_nogo_deval,469,,<img class = center src='/static/experiments/go_nogo_deval/images/blue_rhombus.png'></img>,32,850,test,blue_rhombus,go2,32,31,1,,,,,,,-1,-1,1400,0,ITI,poldrack-single-stim,301,394578,0.0-6.1-96.1,go_nogo_deval,469,,<div></div>,32,1400,test,,,,,,,,,,,,-1,-1,500,0,fixation,poldrack-single-stim,302,395080,0.0-6.1-97.1,go_nogo_deval,469,,<div class = centerbox><div class = fixation>+</div></div>,none,500,test,,,,,,,,,,,,413,32,850,0,stim,poldrack-single-stim,303,395931,0.0-6.1-98.1,go_nogo_deval,469,,<img class = center src='/static/experiments/go_nogo_deval/images/blue_rhombus.png'></img>,32,850,test,blue_rhombus,go2,32,32,1,,,,,,,-1,-1,1400,0,ITI,poldrack-single-stim,304,397332,0.0-6.1-99.1,go_nogo_deval,469,,<div></div>,32,1400,test,,,,,,,,,,,,-1,-1,500,0,fixation,poldrack-single-stim,305,397834,0.0-6.1-100.1,go_nogo_deval,469,,<div class = centerbox><div class = fixation>+</div></div>,none,500,test,,,,,,,,,,,,392,32,850,0,stim,poldrack-single-stim,306,398685,0.0-6.1-101.1,go_nogo_deval,469,,<img class = center src='/static/experiments/go_nogo_deval/images/blue_rhombus.png'></img>,32,850,test,blue_rhombus,go2,32,33,1,,,,,,,-1,-1,1400,0,ITI,poldrack-single-stim,307,400087,0.0-6.1-102.1,go_nogo_deval,469,,<div></div>,32,1400,test,,,,,,,,,,,,-1,-1,500,0,fixation,poldrack-single-stim,308,400588,0.0-6.1-103.1,go_nogo_deval,469,,<div class = centerbox><div class = fixation>+</div></div>,none,500,test,,,,,,,,,,,,427,32,850,0,stim,poldrack-single-stim,309,401440,0.0-6.1-104.1,go_nogo_deval,469,,<img class = center src='/static/experiments/go_nogo_deval/images/green_circle.png'></img>,32,850,test,green_circle,go1,32,34,1,,,,,,,-1,-1,1400,0,ITI,poldrack-single-stim,310,402842,0.0-6.1-105.1,go_nogo_deval,469,,<div></div>,32,1400,test,,,,,,,,,,,,-1,-1,500,0,fixation,poldrack-single-stim,311,403344,0.0-6.1-106.1,go_nogo_deval,469,,<div class = centerbox><div class = fixation>+</div></div>,none,500,test,,,,,,,,,,,,339,32,850,0,stim,poldrack-single-stim,312,404196,0.0-6.1-107.1,go_nogo_deval,469,,<img class = center src='/static/experiments/go_nogo_deval/images/blue_rhombus.png'></img>,32,850,test,blue_rhombus,go2,32,35,1,,,,,,,-1,-1,1400,0,ITI,poldrack-single-stim,313,405598,0.0-6.1-108.1,go_nogo_deval,469,,<div></div>,32,1400,test,,,,,,,,,,,,-1,-1,500,0,fixation,poldrack-single-stim,314,406100,0.0-6.1-109.1,go_nogo_deval,469,,<div class = centerbox><div class = fixation>+</div></div>,none,500,test,,,,,,,,,,,,373,32,850,0,stim,poldrack-single-stim,315,406950,0.0-6.1-110.1,go_nogo_deval,469,,<img class = center src='/static/experiments/go_nogo_deval/images/blue_rhombus.png'></img>,32,850,test,blue_rhombus,go2,32,36,1,,,,,,,-1,-1,1400,0,ITI,poldrack-single-stim,316,408352,0.0-6.1-111.1,go_nogo_deval,469,,<div></div>,32,1400,test,,,,,,,,,,,,-1,-1,500,0,fixation,poldrack-single-stim,317,408854,0.0-6.1-112.1,go_nogo_deval,469,,<div class = centerbox><div class = fixation>+</div></div>,none,500,test,,,,,,,,,,,,409,32,850,0,stim,poldrack-single-stim,318,409706,0.0-6.1-113.1,go_nogo_deval,469,,<img class = center src='/static/experiments/go_nogo_deval/images/green_circle.png'></img>,32,850,test,green_circle,go1,32,37,1,,,,,,,-1,-1,1400,0,ITI,poldrack-single-stim,319,411107,0.0-6.1-114.1,go_nogo_deval,469,,<div></div>,32,1400,test,,,,,,,,,,,,-1,-1,500,0,fixation,poldrack-single-stim,320,411609,0.0-6.1-115.1,go_nogo_deval,469,,<div class = centerbox><div class = fixation>+</div></div>,none,500,test,,,,,,,,,,,,444,32,850,0,stim,poldrack-single-stim,321,412460,0.0-6.1-116.1,go_nogo_deval,469,,<img class = center src='/static/experiments/go_nogo_deval/images/green_circle.png'></img>,32,850,test,green_circle,go1,32,38,1,,,,,,,-1,-1,1400,0,ITI,poldrack-single-stim,322,413861,0.0-6.1-117.1,go_nogo_deval,469,,<div></div>,32,1400,test,,,,,,,,,,,,-1,-1,500,0,fixation,poldrack-single-stim,323,414363,0.0-6.1-118.1,go_nogo_deval,469,,<div class = centerbox><div class = fixation>+</div></div>,none,500,test,,,,,,,,,,,,-1,-1,850,0,stim,poldrack-single-stim,324,415215,0.0-6.1-119.1,go_nogo_deval,469,,<img class = center src='/static/experiments/go_nogo_deval/images/red_pentagon.png'></img>,32,850,test,red_pentagon,nogo2,-1,39,1,,,,,,,-1,-1,1400,0,ITI,poldrack-single-stim,325,416616,0.0-6.1-120.1,go_nogo_deval,469,,<div></div>,32,1400,test,,,,,,,,,,,,-1,-1,500,0,fixation,poldrack-single-stim,326,417118,0.0-6.1-121.1,go_nogo_deval,469,,<div class = centerbox><div class = fixation>+</div></div>,none,500,test,,,,,,,,,,,,493,32,850,0,stim,poldrack-single-stim,327,417970,0.0-6.1-122.1,go_nogo_deval,469,,<img class = center src='/static/experiments/go_nogo_deval/images/green_circle.png'></img>,32,850,test,green_circle,go1,32,40,1,,,,,,,-1,-1,1400,0,ITI,poldrack-single-stim,328,419371,0.0-6.1-123.1,go_nogo_deval,469,,<div></div>,32,1400,test,,,,,,,,,,,,-1,-1,500,0,fixation,poldrack-single-stim,329,419873,0.0-6.1-124.1,go_nogo_deval,469,,<div class = centerbox><div class = fixation>+</div></div>,none,500,test,,,,,,,,,,,,358,32,850,0,stim,poldrack-single-stim,330,420725,0.0-6.1-125.1,go_nogo_deval,469,,<img class = center src='/static/experiments/go_nogo_deval/images/blue_rhombus.png'></img>,32,850,test,blue_rhombus,go2,32,41,1,,,,,,,-1,-1,1400,0,ITI,poldrack-single-stim,331,422127,0.0-6.1-126.1,go_nogo_deval,469,,<div></div>,32,1400,test,,,,,,,,,,,,-1,-1,500,0,fixation,poldrack-single-stim,332,422629,0.0-6.1-127.1,go_nogo_deval,469,,<div class = centerbox><div class = fixation>+</div></div>,none,500,test,,,,,,,,,,,,-1,-1,850,0,stim,poldrack-single-stim,333,423480,0.0-6.1-128.1,go_nogo_deval,469,,<img class = center src='/static/experiments/go_nogo_deval/images/purple_triangle.png'></img>,32,850,test,purple_triangle,nogo1,-1,42,1,,,,,,,-1,-1,1400,0,ITI,poldrack-single-stim,334,424881,0.0-6.1-129.1,go_nogo_deval,469,,<div></div>,32,1400,test,,,,,,,,,,,,-1,-1,500,0,fixation,poldrack-single-stim,335,425383,0.0-6.1-130.1,go_nogo_deval,469,,<div class = centerbox><div class = fixation>+</div></div>,none,500,test,,,,,,,,,,,,373,32,850,0,stim,poldrack-single-stim,336,426234,0.0-6.1-131.1,go_nogo_deval,469,,<img class = center src='/static/experiments/go_nogo_deval/images/blue_rhombus.png'></img>,32,850,test,blue_rhombus,go2,32,43,1,,,,,,,-1,-1,1400,0,ITI,poldrack-single-stim,337,427636,0.0-6.1-132.1,go_nogo_deval,469,,<div></div>,32,1400,test,,,,,,,,,,,,-1,-1,500,0,fixation,poldrack-single-stim,338,428138,0.0-6.1-133.1,go_nogo_deval,469,,<div class = centerbox><div class = fixation>+</div></div>,none,500,test,,,,,,,,,,,,363,32,850,0,stim,poldrack-single-stim,339,428989,0.0-6.1-134.1,go_nogo_deval,469,,<img class = center src='/static/experiments/go_nogo_deval/images/green_circle.png'></img>,32,850,test,green_circle,go1,32,44,1,,,,,,,-1,-1,1400,0,ITI,poldrack-single-stim,340,430391,0.0-6.1-135.1,go_nogo_deval,469,,<div></div>,32,1400,test,,,,,,,,,,,,-1,-1,500,0,fixation,poldrack-single-stim,341,430893,0.0-6.1-136.1,go_nogo_deval,469,,<div class = centerbox><div class = fixation>+</div></div>,none,500,test,,,,,,,,,,,,-1,-1,850,0,stim,poldrack-single-stim,342,431745,0.0-6.1-137.1,go_nogo_deval,469,,<img class = center src='/static/experiments/go_nogo_deval/images/purple_triangle.png'></img>,32,850,test,purple_triangle,nogo1,-1,45,1,,,,,,,-1,-1,1400,0,ITI,poldrack-single-stim,343,433146,0.0-6.1-138.1,go_nogo_deval,469,,<div></div>,32,1400,test,,,,,,,,,,,,-1,-1,500,0,fixation,poldrack-single-stim,344,433648,0.0-6.1-139.1,go_nogo_deval,469,,<div class = centerbox><div class = fixation>+</div></div>,none,500,test,,,,,,,,,,,,545,32,850,0,stim,poldrack-single-stim,345,434500,0.0-6.1-140.1,go_nogo_deval,469,,<img class = center src='/static/experiments/go_nogo_deval/images/green_circle.png'></img>,32,850,test,green_circle,go1,32,46,1,,,,,,,-1,-1,1400,0,ITI,poldrack-single-stim,346,435901,0.0-6.1-141.1,go_nogo_deval,469,,<div></div>,32,1400,test,,,,,,,,,,,,-1,-1,500,0,fixation,poldrack-single-stim,347,436403,0.0-6.1-142.1,go_nogo_deval,469,,<div class = centerbox><div class = fixation>+</div></div>,none,500,test,,,,,,,,,,,,-1,-1,850,0,stim,poldrack-single-stim,348,437254,0.0-6.1-143.1,go_nogo_deval,469,,<img class = center src='/static/experiments/go_nogo_deval/images/red_pentagon.png'></img>,32,850,test,red_pentagon,nogo2,-1,47,1,,,,,,,-1,-1,1400,0,ITI,poldrack-single-stim,349,438656,0.0-6.1-144.1,go_nogo_deval,469,,<div></div>,32,1400,test,,,,,,,,,,,,12995,13,12995,0,practice-no-stop-feedback,poldrack-single-stim,350,451654,0.0-6.2-0.2,go_nogo_deval,469,,<div class = centerbox><p class = block-text><br>Please take this time to read your feedback and to take a short break! Press enter to continue</p><p class = block-text><strong>Average reaction time:  403 ms. Accuracy: 100%</strong></p></div>,13,12995,,,,,,,,,,,,,-1,-1,500,0,fixation,poldrack-single-stim,351,452156,0.0-6.2-1.2,go_nogo_deval,469,,<div class = centerbox><div class = fixation>+</div></div>,none,500,test,,,,,,,,,,,,-1,-1,850,0,stim,poldrack-single-stim,352,453008,0.0-6.2-2.2,go_nogo_deval,469,,<img class = center src='/static/experiments/go_nogo_deval/images/purple_triangle.png'></img>,32,850,test,purple_triangle,nogo1,-1,0,2,,,,,,,-1,-1,1400,0,ITI,poldrack-single-stim,353,454410,0.0-6.2-3.2,go_nogo_deval,469,,<div></div>,32,1400,test,,,,,,,,,,,,-1,-1,500,0,fixation,poldrack-single-stim,354,454912,0.0-6.2-4.2,go_nogo_deval,469,,<div class = centerbox><div class = fixation>+</div></div>,none,500,test,,,,,,,,,,,,533,32,850,0,stim,poldrack-single-stim,355,455764,0.0-6.2-5.2,go_nogo_deval,469,,<img class = center src='/static/experiments/go_nogo_deval/images/blue_rhombus.png'></img>,32,850,test,blue_rhombus,go2,32,1,2,,,,,,,-1,-1,1400,0,ITI,poldrack-single-stim,356,457166,0.0-6.2-6.2,go_nogo_deval,469,,<div></div>,32,1400,test,,,,,,,,,,,,-1,-1,500,0,fixation,poldrack-single-stim,357,457666,0.0-6.2-7.2,go_nogo_deval,469,,<div class = centerbox><div class = fixation>+</div></div>,none,500,test,,,,,,,,,,,,410,32,850,0,stim,poldrack-single-stim,358,458518,0.0-6.2-8.2,go_nogo_deval,469,,<img class = center src='/static/experiments/go_nogo_deval/images/green_circle.png'></img>,32,850,test,green_circle,go1,32,2,2,,,,,,,-1,-1,1400,0,ITI,poldrack-single-stim,359,459919,0.0-6.2-9.2,go_nogo_deval,469,,<div></div>,32,1400,test,,,,,,,,,,,,-1,-1,500,0,fixation,poldrack-single-stim,360,460421,0.0-6.2-10.2,go_nogo_deval,469,,<div class = centerbox><div class = fixation>+</div></div>,none,500,test,,,,,,,,,,,,-1,-1,850,0,stim,poldrack-single-stim,361,461273,0.0-6.2-11.2,go_nogo_deval,469,,<img class = center src='/static/experiments/go_nogo_deval/images/red_pentagon.png'></img>,32,850,test,red_pentagon,nogo2,-1,3,2,,,,,,,-1,-1,1400,0,ITI,poldrack-single-stim,362,462674,0.0-6.2-12.2,go_nogo_deval,469,,<div></div>,32,1400,test,,,,,,,,,,,,-1,-1,500,0,fixation,poldrack-single-stim,363,463175,0.0-6.2-13.2,go_nogo_deval,469,,<div class = centerbox><div class = fixation>+</div></div>,none,500,test,,,,,,,,,,,,348,32,850,0,stim,poldrack-single-stim,364,464027,0.0-6.2-14.2,go_nogo_deval,469,,<img class = center src='/static/experiments/go_nogo_deval/images/blue_rhombus.png'></img>,32,850,test,blue_rhombus,go2,32,4,2,,,,,,,-1,-1,1400,0,ITI,poldrack-single-stim,365,465429,0.0-6.2-15.2,go_nogo_deval,469,,<div></div>,32,1400,test,,,,,,,,,,,,-1,-1,500,0,fixation,poldrack-single-stim,366,465931,0.0-6.2-16.2,go_nogo_deval,469,,<div class = centerbox><div class = fixation>+</div></div>,none,500,test,,,,,,,,,,,,-1,-1,850,0,stim,poldrack-single-stim,367,466783,0.0-6.2-17.2,go_nogo_deval,469,,<img class = center src='/static/experiments/go_nogo_deval/images/purple_triangle.png'></img>,32,850,test,purple_triangle,nogo1,-1,5,2,,,,,,,-1,-1,1400,0,ITI,poldrack-single-stim,368,468184,0.0-6.2-18.2,go_nogo_deval,469,,<div></div>,32,1400,test,,,,,,,,,,,,-1,-1,500,0,fixation,poldrack-single-stim,369,468685,0.0-6.2-19.2,go_nogo_deval,469,,<div class = centerbox><div class = fixation>+</div></div>,none,500,test,,,,,,,,,,,,350,32,850,0,stim,poldrack-single-stim,370,469537,0.0-6.2-20.2,go_nogo_deval,469,,<img class = center src='/static/experiments/go_nogo_deval/images/green_circle.png'></img>,32,850,test,green_circle,go1,32,6,2,,,,,,,-1,-1,1400,0,ITI,poldrack-single-stim,371,470939,0.0-6.2-21.2,go_nogo_deval,469,,<div></div>,32,1400,test,,,,,,,,,,,,-1,-1,500,0,fixation,poldrack-single-stim,372,471441,0.0-6.2-22.2,go_nogo_deval,469,,<div class = centerbox><div class = fixation>+</div></div>,none,500,test,,,,,,,,,,,,372,32,850,0,stim,poldrack-single-stim,373,472292,0.0-6.2-23.2,go_nogo_deval,469,,<img class = center src='/static/experiments/go_nogo_deval/images/green_circle.png'></img>,32,850,test,green_circle,go1,32,7,2,,,,,,,-1,-1,1400,0,ITI,poldrack-single-stim,374,473693,0.0-6.2-24.2,go_nogo_deval,469,,<div></div>,32,1400,test,,,,,,,,,,,,-1,-1,500,0,fixation,poldrack-single-stim,375,474195,0.0-6.2-25.2,go_nogo_deval,469,,<div class = centerbox><div class = fixation>+</div></div>,none,500,test,,,,,,,,,,,,454,32,850,0,stim,poldrack-single-stim,376,475046,0.0-6.2-26.2,go_nogo_deval,469,,<img class = center src='/static/experiments/go_nogo_deval/images/blue_rhombus.png'></img>,32,850,test,blue_rhombus,go2,32,8,2,,,,,,,-1,-1,1400,0,ITI,poldrack-single-stim,377,476448,0.0-6.2-27.2,go_nogo_deval,469,,<div></div>,32,1400,test,,,,,,,,,,,,-1,-1,500,0,fixation,poldrack-single-stim,378,476949,0.0-6.2-28.2,go_nogo_deval,469,,<div class = centerbox><div class = fixation>+</div></div>,none,500,test,,,,,,,,,,,,-1,-1,850,0,stim,poldrack-single-stim,379,477801,0.0-6.2-29.2,go_nogo_deval,469,,<img class = center src='/static/experiments/go_nogo_deval/images/red_pentagon.png'></img>,32,850,test,red_pentagon,nogo2,-1,9,2,,,,,,,-1,-1,1400,0,ITI,poldrack-single-stim,380,479202,0.0-6.2-30.2,go_nogo_deval,469,,<div></div>,32,1400,test,,,,,,,,,,,,-1,-1,500,0,fixation,poldrack-single-stim,381,479704,0.0-6.2-31.2,go_nogo_deval,469,,<div class = centerbox><div class = fixation>+</div></div>,none,500,test,,,,,,,,,,,,288,32,850,0,stim,poldrack-single-stim,382,480555,0.0-6.2-32.2,go_nogo_deval,469,,<img class = center src='/static/experiments/go_nogo_deval/images/green_circle.png'></img>,32,850,test,green_circle,go1,32,10,2,,,,,,,-1,-1,1400,0,ITI,poldrack-single-stim,383,481957,0.0-6.2-33.2,go_nogo_deval,469,,<div></div>,32,1400,test,,,,,,,,,,,,-1,-1,500,0,fixation,poldrack-single-stim,384,482458,0.0-6.2-34.2,go_nogo_deval,469,,<div class = centerbox><div class = fixation>+</div></div>,none,500,test,,,,,,,,,,,,392,32,850,0,stim,poldrack-single-stim,385,483308,0.0-6.2-35.2,go_nogo_deval,469,,<img class = center src='/static/experiments/go_nogo_deval/images/blue_rhombus.png'></img>,32,850,test,blue_rhombus,go2,32,11,2,,,,,,,-1,-1,1400,0,ITI,poldrack-single-stim,386,484710,0.0-6.2-36.2,go_nogo_deval,469,,<div></div>,32,1400,test,,,,,,,,,,,,-1,-1,500,0,fixation,poldrack-single-stim,387,485212,0.0-6.2-37.2,go_nogo_deval,469,,<div class = centerbox><div class = fixation>+</div></div>,none,500,test,,,,,,,,,,,,327,32,850,0,stim,poldrack-single-stim,388,486063,0.0-6.2-38.2,go_nogo_deval,469,,<img class = center src='/static/experiments/go_nogo_deval/images/green_circle.png'></img>,32,850,test,green_circle,go1,32,12,2,,,,,,,-1,-1,1400,0,ITI,poldrack-single-stim,389,487465,0.0-6.2-39.2,go_nogo_deval,469,,<div></div>,32,1400,test,,,,,,,,,,,,-1,-1,500,0,fixation,poldrack-single-stim,390,487967,0.0-6.2-40.2,go_nogo_deval,469,,<div class = centerbox><div class = fixation>+</div></div>,none,500,test,,,,,,,,,,,,418,32,850,0,stim,poldrack-single-stim,391,488819,0.0-6.2-41.2,go_nogo_deval,469,,<img class = center src='/static/experiments/go_nogo_deval/images/green_circle.png'></img>,32,850,test,green_circle,go1,32,13,2,,,,,,,-1,-1,1400,0,ITI,poldrack-single-stim,392,490219,0.0-6.2-42.2,go_nogo_deval,469,,<div></div>,32,1400,test,,,,,,,,,,,,-1,-1,500,0,fixation,poldrack-single-stim,393,490722,0.0-6.2-43.2,go_nogo_deval,469,,<div class = centerbox><div class = fixation>+</div></div>,none,500,test,,,,,,,,,,,,430,32,850,0,stim,poldrack-single-stim,394,491574,0.0-6.2-44.2,go_nogo_deval,469,,<img class = center src='/static/experiments/go_nogo_deval/images/green_circle.png'></img>,32,850,test,green_circle,go1,32,14,2,,,,,,,-1,-1,1400,0,ITI,poldrack-single-stim,395,492976,0.0-6.2-45.2,go_nogo_deval,469,,<div></div>,32,1400,test,,,,,,,,,,,,-1,-1,500,0,fixation,poldrack-single-stim,396,493478,0.0-6.2-46.2,go_nogo_deval,469,,<div class = centerbox><div class = fixation>+</div></div>,none,500,test,,,,,,,,,,,,-1,-1,850,0,stim,poldrack-single-stim,397,494329,0.0-6.2-47.2,go_nogo_deval,469,,<img class = center src='/static/experiments/go_nogo_deval/images/red_pentagon.png'></img>,32,850,test,red_pentagon,nogo2,-1,15,2,,,,,,,-1,-1,1400,0,ITI,poldrack-single-stim,398,495731,0.0-6.2-48.2,go_nogo_deval,469,,<div></div>,32,1400,test,,,,,,,,,,,,-1,-1,500,0,fixation,poldrack-single-stim,399,496232,0.0-6.2-49.2,go_nogo_deval,469,,<div class = centerbox><div class = fixation>+</div></div>,none,500,test,,,,,,,,,,,,-1,-1,850,0,stim,poldrack-single-stim,400,497084,0.0-6.2-50.2,go_nogo_deval,469,,<img class = center src='/static/experiments/go_nogo_deval/images/purple_triangle.png'></img>,32,850,test,purple_triangle,nogo1,-1,16,2,,,,,,,-1,-1,1400,0,ITI,poldrack-single-stim,401,498485,0.0-6.2-51.2,go_nogo_deval,469,,<div></div>,32,1400,test,,,,,,,,,,,,-1,-1,500,0,fixation,poldrack-single-stim,402,498988,0.0-6.2-52.2,go_nogo_deval,469,,<div class = centerbox><div class = fixation>+</div></div>,none,500,test,,,,,,,,,,,,479,32,850,0,stim,poldrack-single-stim,403,499839,0.0-6.2-53.2,go_nogo_deval,469,,<img class = center src='/static/experiments/go_nogo_deval/images/blue_rhombus.png'></img>,32,850,test,blue_rhombus,go2,32,17,2,,,,,,,-1,-1,1400,0,ITI,poldrack-single-stim,404,501241,0.0-6.2-54.2,go_nogo_deval,469,,<div></div>,32,1400,test,,,,,,,,,,,,-1,-1,500,0,fixation,poldrack-single-stim,405,501743,0.0-6.2-55.2,go_nogo_deval,469,,<div class = centerbox><div class = fixation>+</div></div>,none,500,test,,,,,,,,,,,,-1,-1,850,0,stim,poldrack-single-stim,406,502595,0.0-6.2-56.2,go_nogo_deval,469,,<img class = center src='/static/experiments/go_nogo_deval/images/purple_triangle.png'></img>,32,850,test,purple_triangle,nogo1,-1,18,2,,,,,,,-1,-1,1400,0,ITI,poldrack-single-stim,407,503997,0.0-6.2-57.2,go_nogo_deval,469,,<div></div>,32,1400,test,,,,,,,,,,,,-1,-1,500,0,fixation,poldrack-single-stim,408,504499,0.0-6.2-58.2,go_nogo_deval,469,,<div class = centerbox><div class = fixation>+</div></div>,none,500,test,,,,,,,,,,,,-1,-1,850,0,stim,poldrack-single-stim,409,505350,0.0-6.2-59.2,go_nogo_deval,469,,<img class = center src='/static/experiments/go_nogo_deval/images/red_pentagon.png'></img>,32,850,test,red_pentagon,nogo2,-1,19,2,,,,,,,-1,-1,1400,0,ITI,poldrack-single-stim,410,506751,0.0-6.2-60.2,go_nogo_deval,469,,<div></div>,32,1400,test,,,,,,,,,,,,-1,-1,500,0,fixation,poldrack-single-stim,411,507252,0.0-6.2-61.2,go_nogo_deval,469,,<div class = centerbox><div class = fixation>+</div></div>,none,500,test,,,,,,,,,,,,347,32,850,0,stim,poldrack-single-stim,412,508104,0.0-6.2-62.2,go_nogo_deval,469,,<img class = center src='/static/experiments/go_nogo_deval/images/green_circle.png'></img>,32,850,test,green_circle,go1,32,20,2,,,,,,,-1,-1,1400,0,ITI,poldrack-single-stim,413,509505,0.0-6.2-63.2,go_nogo_deval,469,,<div></div>,32,1400,test,,,,,,,,,,,,-1,-1,500,0,fixation,poldrack-single-stim,414,510007,0.0-6.2-64.2,go_nogo_deval,469,,<div class = centerbox><div class = fixation>+</div></div>,none,500,test,,,,,,,,,,,,440,32,850,0,stim,poldrack-single-stim,415,510858,0.0-6.2-65.2,go_nogo_deval,469,,<img class = center src='/static/experiments/go_nogo_deval/images/blue_rhombus.png'></img>,32,850,test,blue_rhombus,go2,32,21,2,,,,,,,-1,-1,1400,0,ITI,poldrack-single-stim,416,512260,0.0-6.2-66.2,go_nogo_deval,469,,<div></div>,32,1400,test,,,,,,,,,,,,-1,-1,500,0,fixation,poldrack-single-stim,417,512762,0.0-6.2-67.2,go_nogo_deval,469,,<div class = centerbox><div class = fixation>+</div></div>,none,500,test,,,,,,,,,,,,407,32,850,0,stim,poldrack-single-stim,418,513613,0.0-6.2-68.2,go_nogo_deval,469,,<img class = center src='/static/experiments/go_nogo_deval/images/blue_rhombus.png'></img>,32,850,test,blue_rhombus,go2,32,22,2,,,,,,,-1,-1,1400,0,ITI,poldrack-single-stim,419,515014,0.0-6.2-69.2,go_nogo_deval,469,,<div></div>,32,1400,test,,,,,,,,,,,,-1,-1,500,0,fixation,poldrack-single-stim,420,515516,0.0-6.2-70.2,go_nogo_deval,469,,<div class = centerbox><div class = fixation>+</div></div>,none,500,test,,,,,,,,,,,,342,32,850,0,stim,poldrack-single-stim,421,516367,0.0-6.2-71.2,go_nogo_deval,469,,<img class = center src='/static/experiments/go_nogo_deval/images/green_circle.png'></img>,32,850,test,green_circle,go1,32,23,2,,,,,,,-1,-1,1400,0,ITI,poldrack-single-stim,422,517770,0.0-6.2-72.2,go_nogo_deval,469,,<div></div>,32,1400,test,,,,,,,,,,,,-1,-1,500,0,fixation,poldrack-single-stim,423,518272,0.0-6.2-73.2,go_nogo_deval,469,,<div class = centerbox><div class = fixation>+</div></div>,none,500,test,,,,,,,,,,,,-1,-1,850,0,stim,poldrack-single-stim,424,519124,0.0-6.2-74.2,go_nogo_deval,469,,<img class = center src='/static/experiments/go_nogo_deval/images/red_pentagon.png'></img>,32,850,test,red_pentagon,nogo2,-1,24,2,,,,,,,-1,-1,1400,0,ITI,poldrack-single-stim,425,520525,0.0-6.2-75.2,go_nogo_deval,469,,<div></div>,32,1400,test,,,,,,,,,,,,-1,-1,500,0,fixation,poldrack-single-stim,426,521027,0.0-6.2-76.2,go_nogo_deval,469,,<div class = centerbox><div class = fixation>+</div></div>,none,500,test,,,,,,,,,,,,354,32,850,0,stim,poldrack-single-stim,427,521878,0.0-6.2-77.2,go_nogo_deval,469,,<img class = center src='/static/experiments/go_nogo_deval/images/blue_rhombus.png'></img>,32,850,test,blue_rhombus,go2,32,25,2,,,,,,,-1,-1,1400,0,ITI,poldrack-single-stim,428,523280,0.0-6.2-78.2,go_nogo_deval,469,,<div></div>,32,1400,test,,,,,,,,,,,,-1,-1,500,0,fixation,poldrack-single-stim,429,523782,0.0-6.2-79.2,go_nogo_deval,469,,<div class = centerbox><div class = fixation>+</div></div>,none,500,test,,,,,,,,,,,,356,32,850,0,stim,poldrack-single-stim,430,524634,0.0-6.2-80.2,go_nogo_deval,469,,<img class = center src='/static/experiments/go_nogo_deval/images/green_circle.png'></img>,32,850,test,green_circle,go1,32,26,2,,,,,,,-1,-1,1400,0,ITI,poldrack-single-stim,431,526035,0.0-6.2-81.2,go_nogo_deval,469,,<div></div>,32,1400,test,,,,,,,,,,,,-1,-1,500,0,fixation,poldrack-single-stim,432,526536,0.0-6.2-82.2,go_nogo_deval,469,,<div class = centerbox><div class = fixation>+</div></div>,none,500,test,,,,,,,,,,,,301,32,850,0,stim,poldrack-single-stim,433,527387,0.0-6.2-83.2,go_nogo_deval,469,,<img class = center src='/static/experiments/go_nogo_deval/images/green_circle.png'></img>,32,850,test,green_circle,go1,32,27,2,,,,,,,-1,-1,1400,0,ITI,poldrack-single-stim,434,528788,0.0-6.2-84.2,go_nogo_deval,469,,<div></div>,32,1400,test,,,,,,,,,,,,-1,-1,500,0,fixation,poldrack-single-stim,435,529290,0.0-6.2-85.2,go_nogo_deval,469,,<div class = centerbox><div class = fixation>+</div></div>,none,500,test,,,,,,,,,,,,371,32,850,0,stim,poldrack-single-stim,436,530142,0.0-6.2-86.2,go_nogo_deval,469,,<img class = center src='/static/experiments/go_nogo_deval/images/blue_rhombus.png'></img>,32,850,test,blue_rhombus,go2,32,28,2,,,,,,,-1,-1,1400,0,ITI,poldrack-single-stim,437,531543,0.0-6.2-87.2,go_nogo_deval,469,,<div></div>,32,1400,test,,,,,,,,,,,,-1,-1,500,0,fixation,poldrack-single-stim,438,532045,0.0-6.2-88.2,go_nogo_deval,469,,<div class = centerbox><div class = fixation>+</div></div>,none,500,test,,,,,,,,,,,,294,32,850,0,stim,poldrack-single-stim,439,532896,0.0-6.2-89.2,go_nogo_deval,469,,<img class = center src='/static/experiments/go_nogo_deval/images/blue_rhombus.png'></img>,32,850,test,blue_rhombus,go2,32,29,2,,,,,,,-1,-1,1400,0,ITI,poldrack-single-stim,440,534297,0.0-6.2-90.2,go_nogo_deval,469,,<div></div>,32,1400,test,,,,,,,,,,,,-1,-1,500,0,fixation,poldrack-single-stim,441,534799,0.0-6.2-91.2,go_nogo_deval,469,,<div class = centerbox><div class = fixation>+</div></div>,none,500,test,,,,,,,,,,,,386,32,850,0,stim,poldrack-single-stim,442,535651,0.0-6.2-92.2,go_nogo_deval,469,,<img class = center src='/static/experiments/go_nogo_deval/images/green_circle.png'></img>,32,850,test,green_circle,go1,32,30,2,,,,,,,-1,-1,1400,0,ITI,poldrack-single-stim,443,537052,0.0-6.2-93.2,go_nogo_deval,469,,<div></div>,32,1400,test,,,,,,,,,,,,-1,-1,500,0,fixation,poldrack-single-stim,444,537554,0.0-6.2-94.2,go_nogo_deval,469,,<div class = centerbox><div class = fixation>+</div></div>,none,500,test,,,,,,,,,,,,399,32,850,0,stim,poldrack-single-stim,445,538405,0.0-6.2-95.2,go_nogo_deval,469,,<img class = center src='/static/experiments/go_nogo_deval/images/green_circle.png'></img>,32,850,test,green_circle,go1,32,31,2,,,,,,,-1,-1,1400,0,ITI,poldrack-single-stim,446,539806,0.0-6.2-96.2,go_nogo_deval,469,,<div></div>,32,1400,test,,,,,,,,,,,,-1,-1,500,0,fixation,poldrack-single-stim,447,540308,0.0-6.2-97.2,go_nogo_deval,469,,<div class = centerbox><div class = fixation>+</div></div>,none,500,test,,,,,,,,,,,,-1,-1,850,0,stim,poldrack-single-stim,448,541160,0.0-6.2-98.2,go_nogo_deval,469,,<img class = center src='/static/experiments/go_nogo_deval/images/purple_triangle.png'></img>,32,850,test,purple_triangle,nogo1,-1,32,2,,,,,,,-1,-1,1400,0,ITI,poldrack-single-stim,449,542561,0.0-6.2-99.2,go_nogo_deval,469,,<div></div>,32,1400,test,,,,,,,,,,,,-1,-1,500,0,fixation,poldrack-single-stim,450,543063,0.0-6.2-100.2,go_nogo_deval,469,,<div class = centerbox><div class = fixation>+</div></div>,none,500,test,,,,,,,,,,,,-1,-1,850,0,stim,poldrack-single-stim,451,543915,0.0-6.2-101.2,go_nogo_deval,469,,<img class = center src='/static/experiments/go_nogo_deval/images/purple_triangle.png'></img>,32,850,test,purple_triangle,nogo1,-1,33,2,,,,,,,-1,-1,1400,0,ITI,poldrack-single-stim,452,545316,0.0-6.2-102.2,go_nogo_deval,469,,<div></div>,32,1400,test,,,,,,,,,,,,-1,-1,500,0,fixation,poldrack-single-stim,453,545817,0.0-6.2-103.2,go_nogo_deval,469,,<div class = centerbox><div class = fixation>+</div></div>,none,500,test,,,,,,,,,,,,-1,-1,850,0,stim,poldrack-single-stim,454,546669,0.0-6.2-104.2,go_nogo_deval,469,,<img class = center src='/static/experiments/go_nogo_deval/images/purple_triangle.png'></img>,32,850,test,purple_triangle,nogo1,-1,34,2,,,,,,,-1,-1,1400,0,ITI,poldrack-single-stim,455,548071,0.0-6.2-105.2,go_nogo_deval,469,,<div></div>,32,1400,test,,,,,,,,,,,,-1,-1,500,0,fixation,poldrack-single-stim,456,548572,0.0-6.2-106.2,go_nogo_deval,469,,<div class = centerbox><div class = fixation>+</div></div>,none,500,test,,,,,,,,,,,,372,32,850,0,stim,poldrack-single-stim,457,549424,0.0-6.2-107.2,go_nogo_deval,469,,<img class = center src='/static/experiments/go_nogo_deval/images/green_circle.png'></img>,32,850,test,green_circle,go1,32,35,2,,,,,,,-1,-1,1400,0,ITI,poldrack-single-stim,458,550825,0.0-6.2-108.2,go_nogo_deval,469,,<div></div>,32,1400,test,,,,,,,,,,,,-1,-1,500,0,fixation,poldrack-single-stim,459,551326,0.0-6.2-109.2,go_nogo_deval,469,,<div class = centerbox><div class = fixation>+</div></div>,none,500,test,,,,,,,,,,,,397,32,850,0,stim,poldrack-single-stim,460,552178,0.0-6.2-110.2,go_nogo_deval,469,,<img class = center src='/static/experiments/go_nogo_deval/images/blue_rhombus.png'></img>,32,850,test,blue_rhombus,go2,32,36,2,,,,,,,-1,-1,1400,0,ITI,poldrack-single-stim,461,553580,0.0-6.2-111.2,go_nogo_deval,469,,<div></div>,32,1400,test,,,,,,,,,,,,-1,-1,500,0,fixation,poldrack-single-stim,462,554081,0.0-6.2-112.2,go_nogo_deval,469,,<div class = centerbox><div class = fixation>+</div></div>,none,500,test,,,,,,,,,,,,-1,-1,850,0,stim,poldrack-single-stim,463,554933,0.0-6.2-113.2,go_nogo_deval,469,,<img class = center src='/static/experiments/go_nogo_deval/images/red_pentagon.png'></img>,32,850,test,red_pentagon,nogo2,-1,37,2,,,,,,,-1,-1,1400,0,ITI,poldrack-single-stim,464,556335,0.0-6.2-114.2,go_nogo_deval,469,,<div></div>,32,1400,test,,,,,,,,,,,,-1,-1,500,0,fixation,poldrack-single-stim,465,556837,0.0-6.2-115.2,go_nogo_deval,469,,<div class = centerbox><div class = fixation>+</div></div>,none,500,test,,,,,,,,,,,,444,32,850,0,stim,poldrack-single-stim,466,557688,0.0-6.2-116.2,go_nogo_deval,469,,<img class = center src='/static/experiments/go_nogo_deval/images/blue_rhombus.png'></img>,32,850,test,blue_rhombus,go2,32,38,2,,,,,,,-1,-1,1400,0,ITI,poldrack-single-stim,467,559090,0.0-6.2-117.2,go_nogo_deval,469,,<div></div>,32,1400,test,,,,,,,,,,,,-1,-1,500,0,fixation,poldrack-single-stim,468,559591,0.0-6.2-118.2,go_nogo_deval,469,,<div class = centerbox><div class = fixation>+</div></div>,none,500,test,,,,,,,,,,,,-1,-1,850,0,stim,poldrack-single-stim,469,560442,0.0-6.2-119.2,go_nogo_deval,469,,<img class = center src='/static/experiments/go_nogo_deval/images/red_pentagon.png'></img>,32,850,test,red_pentagon,nogo2,-1,39,2,,,,,,,-1,-1,1400,0,ITI,poldrack-single-stim,470,561844,0.0-6.2-120.2,go_nogo_deval,469,,<div></div>,32,1400,test,,,,,,,,,,,,-1,-1,500,0,fixation,poldrack-single-stim,471,562345,0.0-6.2-121.2,go_nogo_deval,469,,<div class = centerbox><div class = fixation>+</div></div>,none,500,test,,,,,,,,,,,,415,32,850,0,stim,poldrack-single-stim,472,563197,0.0-6.2-122.2,go_nogo_deval,469,,<img class = center src='/static/experiments/go_nogo_deval/images/blue_rhombus.png'></img>,32,850,test,blue_rhombus,go2,32,40,2,,,,,,,-1,-1,1400,0,ITI,poldrack-single-stim,473,564598,0.0-6.2-123.2,go_nogo_deval,469,,<div></div>,32,1400,test,,,,,,,,,,,,-1,-1,500,0,fixation,poldrack-single-stim,474,565100,0.0-6.2-124.2,go_nogo_deval,469,,<div class = centerbox><div class = fixation>+</div></div>,none,500,test,,,,,,,,,,,,382,32,850,0,stim,poldrack-single-stim,475,565952,0.0-6.2-125.2,go_nogo_deval,469,,<img class = center src='/static/experiments/go_nogo_deval/images/blue_rhombus.png'></img>,32,850,test,blue_rhombus,go2,32,41,2,,,,,,,-1,-1,1400,0,ITI,poldrack-single-stim,476,567353,0.0-6.2-126.2,go_nogo_deval,469,,<div></div>,32,1400,test,,,,,,,,,,,,-1,-1,500,0,fixation,poldrack-single-stim,477,567855,0.0-6.2-127.2,go_nogo_deval,469,,<div class = centerbox><div class = fixation>+</div></div>,none,500,test,,,,,,,,,,,,338,32,850,0,stim,poldrack-single-stim,478,568705,0.0-6.2-128.2,go_nogo_deval,469,,<img class = center src='/static/experiments/go_nogo_deval/images/blue_rhombus.png'></img>,32,850,test,blue_rhombus,go2,32,42,2,,,,,,,-1,-1,1400,0,ITI,poldrack-single-stim,479,570107,0.0-6.2-129.2,go_nogo_deval,469,,<div></div>,32,1400,test,,,,,,,,,,,,-1,-1,500,0,fixation,poldrack-single-stim,480,570609,0.0-6.2-130.2,go_nogo_deval,469,,<div class = centerbox><div class = fixation>+</div></div>,none,500,test,,,,,,,,,,,,430,32,850,0,stim,poldrack-single-stim,481,571461,0.0-6.2-131.2,go_nogo_deval,469,,<img class = center src='/static/experiments/go_nogo_deval/images/green_circle.png'></img>,32,850,test,green_circle,go1,32,43,2,,,,,,,-1,-1,1400,0,ITI,poldrack-single-stim,482,572862,0.0-6.2-132.2,go_nogo_deval,469,,<div></div>,32,1400,test,,,,,,,,,,,,-1,-1,500,0,fixation,poldrack-single-stim,483,573363,0.0-6.2-133.2,go_nogo_deval,469,,<div class = centerbox><div class = fixation>+</div></div>,none,500,test,,,,,,,,,,,,399,32,850,0,stim,poldrack-single-stim,484,574214,0.0-6.2-134.2,go_nogo_deval,469,,<img class = center src='/static/experiments/go_nogo_deval/images/green_circle.png'></img>,32,850,test,green_circle,go1,32,44,2,,,,,,,-1,-1,1400,0,ITI,poldrack-single-stim,485,575616,0.0-6.2-135.2,go_nogo_deval,469,,<div></div>,32,1400,test,,,,,,,,,,,,-1,-1,500,0,fixation,poldrack-single-stim,486,576118,0.0-6.2-136.2,go_nogo_deval,469,,<div class = centerbox><div class = fixation>+</div></div>,none,500,test,,,,,,,,,,,,366,32,850,0,stim,poldrack-single-stim,487,576970,0.0-6.2-137.2,go_nogo_deval,469,,<img class = center src='/static/experiments/go_nogo_deval/images/blue_rhombus.png'></img>,32,850,test,blue_rhombus,go2,32,45,2,,,,,,,-1,-1,1400,0,ITI,poldrack-single-stim,488,578371,0.0-6.2-138.2,go_nogo_deval,469,,<div></div>,32,1400,test,,,,,,,,,,,,-1,-1,500,0,fixation,poldrack-single-stim,489,578873,0.0-6.2-139.2,go_nogo_deval,469,,<div class = centerbox><div class = fixation>+</div></div>,none,500,test,,,,,,,,,,,,-1,-1,850,0,stim,poldrack-single-stim,490,579724,0.0-6.2-140.2,go_nogo_deval,469,,<img class = center src='/static/experiments/go_nogo_deval/images/red_pentagon.png'></img>,32,850,test,red_pentagon,nogo2,-1,46,2,,,,,,,-1,-1,1400,0,ITI,poldrack-single-stim,491,581125,0.0-6.2-141.2,go_nogo_deval,469,,<div></div>,32,1400,test,,,,,,,,,,,,-1,-1,500,0,fixation,poldrack-single-stim,492,581626,0.0-6.2-142.2,go_nogo_deval,469,,<div class = centerbox><div class = fixation>+</div></div>,none,500,test,,,,,,,,,,,,-1,-1,850,0,stim,poldrack-single-stim,493,582478,0.0-6.2-143.2,go_nogo_deval,469,,<img class = center src='/static/experiments/go_nogo_deval/images/purple_triangle.png'></img>,32,850,test,purple_triangle,nogo1,-1,47,2,,,,,,,-1,-1,1400,0,ITI,poldrack-single-stim,494,583879,0.0-6.2-144.2,go_nogo_deval,469,,<div></div>,32,1400,test,,,,,,,,,,,,6551,13,6551,0,practice-no-stop-feedback,poldrack-single-stim,495,590435,0.0-6.3-0.3,go_nogo_deval,469,,<div class = centerbox><p class = block-text><br>Please take this time to read your feedback and to take a short break! Press enter to continue</p><p class = block-text><strong>Average reaction time:  386 ms. Accuracy: 100%</strong></p></div>,13,6551,,,,,,,,,,,,,-1,-1,500,0,fixation,poldrack-single-stim,496,590937,0.0-6.3-1.3,go_nogo_deval,469,,<div class = centerbox><div class = fixation>+</div></div>,none,500,test,,,,,,,,,,,,-1,-1,850,0,stim,poldrack-single-stim,497,591789,0.0-6.3-2.3,go_nogo_deval,469,,<img class = center src='/static/experiments/go_nogo_deval/images/red_pentagon.png'></img>,32,850,test,red_pentagon,nogo2,-1,0,3,,,,,,,-1,-1,1400,0,ITI,poldrack-single-stim,498,593190,0.0-6.3-3.3,go_nogo_deval,469,,<div></div>,32,1400,test,,,,,,,,,,,,-1,-1,500,0,fixation,poldrack-single-stim,499,593690,0.0-6.3-4.3,go_nogo_deval,469,,<div class = centerbox><div class = fixation>+</div></div>,none,500,test,,,,,,,,,,,,377,32,850,0,stim,poldrack-single-stim,500,594542,0.0-6.3-5.3,go_nogo_deval,469,,<img class = center src='/static/experiments/go_nogo_deval/images/blue_rhombus.png'></img>,32,850,test,blue_rhombus,go2,32,1,3,,,,,,,-1,-1,1400,0,ITI,poldrack-single-stim,501,595944,0.0-6.3-6.3,go_nogo_deval,469,,<div></div>,32,1400,test,,,,,,,,,,,,-1,-1,500,0,fixation,poldrack-single-stim,502,596445,0.0-6.3-7.3,go_nogo_deval,469,,<div class = centerbox><div class = fixation>+</div></div>,none,500,test,,,,,,,,,,,,-1,-1,850,0,stim,poldrack-single-stim,503,597297,0.0-6.3-8.3,go_nogo_deval,469,,<img class = center src='/static/experiments/go_nogo_deval/images/red_pentagon.png'></img>,32,850,test,red_pentagon,nogo2,-1,2,3,,,,,,,-1,-1,1400,0,ITI,poldrack-single-stim,504,598698,0.0-6.3-9.3,go_nogo_deval,469,,<div></div>,32,1400,test,,,,,,,,,,,,-1,-1,500,0,fixation,poldrack-single-stim,505,599199,0.0-6.3-10.3,go_nogo_deval,469,,<div class = centerbox><div class = fixation>+</div></div>,none,500,test,,,,,,,,,,,,336,32,850,0,stim,poldrack-single-stim,506,600051,0.0-6.3-11.3,go_nogo_deval,469,,<img class = center src='/static/experiments/go_nogo_deval/images/blue_rhombus.png'></img>,32,850,test,blue_rhombus,go2,32,3,3,,,,,,,-1,-1,1400,0,ITI,poldrack-single-stim,507,601452,0.0-6.3-12.3,go_nogo_deval,469,,<div></div>,32,1400,test,,,,,,,,,,,,-1,-1,500,0,fixation,poldrack-single-stim,508,601953,0.0-6.3-13.3,go_nogo_deval,469,,<div class = centerbox><div class = fixation>+</div></div>,none,500,test,,,,,,,,,,,,462,32,850,0,stim,poldrack-single-stim,509,602805,0.0-6.3-14.3,go_nogo_deval,469,,<img class = center src='/static/experiments/go_nogo_deval/images/blue_rhombus.png'></img>,32,850,test,blue_rhombus,go2,32,4,3,,,,,,,-1,-1,1400,0,ITI,poldrack-single-stim,510,604206,0.0-6.3-15.3,go_nogo_deval,469,,<div></div>,32,1400,test,,,,,,,,,,,,-1,-1,500,0,fixation,poldrack-single-stim,511,604707,0.0-6.3-16.3,go_nogo_deval,469,,<div class = centerbox><div class = fixation>+</div></div>,none,500,test,,,,,,,,,,,,-1,-1,850,0,stim,poldrack-single-stim,512,605558,0.0-6.3-17.3,go_nogo_deval,469,,<img class = center src='/static/experiments/go_nogo_deval/images/purple_triangle.png'></img>,32,850,test,purple_triangle,nogo1,-1,5,3,,,,,,,-1,-1,1400,0,ITI,poldrack-single-stim,513,606959,0.0-6.3-18.3,go_nogo_deval,469,,<div></div>,32,1400,test,,,,,,,,,,,,-1,-1,500,0,fixation,poldrack-single-stim,514,607459,0.0-6.3-19.3,go_nogo_deval,469,,<div class = centerbox><div class = fixation>+</div></div>,none,500,test,,,,,,,,,,,,-1,-1,850,0,stim,poldrack-single-stim,515,608311,0.0-6.3-20.3,go_nogo_deval,469,,<img class = center src='/static/experiments/go_nogo_deval/images/red_pentagon.png'></img>,32,850,test,red_pentagon,nogo2,-1,6,3,,,,,,,-1,-1,1400,0,ITI,poldrack-single-stim,516,609713,0.0-6.3-21.3,go_nogo_deval,469,,<div></div>,32,1400,test,,,,,,,,,,,,-1,-1,500,0,fixation,poldrack-single-stim,517,610214,0.0-6.3-22.3,go_nogo_deval,469,,<div class = centerbox><div class = fixation>+</div></div>,none,500,test,,,,,,,,,,,,425,32,850,0,stim,poldrack-single-stim,518,611066,0.0-6.3-23.3,go_nogo_deval,469,,<img class = center src='/static/experiments/go_nogo_deval/images/green_circle.png'></img>,32,850,test,green_circle,go1,32,7,3,,,,,,,-1,-1,1400,0,ITI,poldrack-single-stim,519,612467,0.0-6.3-24.3,go_nogo_deval,469,,<div></div>,32,1400,test,,,,,,,,,,,,-1,-1,500,0,fixation,poldrack-single-stim,520,612968,0.0-6.3-25.3,go_nogo_deval,469,,<div class = centerbox><div class = fixation>+</div></div>,none,500,test,,,,,,,,,,,,-1,-1,850,0,stim,poldrack-single-stim,521,613819,0.0-6.3-26.3,go_nogo_deval,469,,<img class = center src='/static/experiments/go_nogo_deval/images/red_pentagon.png'></img>,32,850,test,red_pentagon,nogo2,-1,8,3,,,,,,,-1,-1,1400,0,ITI,poldrack-single-stim,522,615220,0.0-6.3-27.3,go_nogo_deval,469,,<div></div>,32,1400,test,,,,,,,,,,,,-1,-1,500,0,fixation,poldrack-single-stim,523,615722,0.0-6.3-28.3,go_nogo_deval,469,,<div class = centerbox><div class = fixation>+</div></div>,none,500,test,,,,,,,,,,,,351,32,850,0,stim,poldrack-single-stim,524,616574,0.0-6.3-29.3,go_nogo_deval,469,,<img class = center src='/static/experiments/go_nogo_deval/images/blue_rhombus.png'></img>,32,850,test,blue_rhombus,go2,32,9,3,,,,,,,-1,-1,1400,0,ITI,poldrack-single-stim,525,617976,0.0-6.3-30.3,go_nogo_deval,469,,<div></div>,32,1400,test,,,,,,,,,,,,-1,-1,500,0,fixation,poldrack-single-stim,526,618478,0.0-6.3-31.3,go_nogo_deval,469,,<div class = centerbox><div class = fixation>+</div></div>,none,500,test,,,,,,,,,,,,386,32,850,0,stim,poldrack-single-stim,527,619328,0.0-6.3-32.3,go_nogo_deval,469,,<img class = center src='/static/experiments/go_nogo_deval/images/blue_rhombus.png'></img>,32,850,test,blue_rhombus,go2,32,10,3,,,,,,,-1,-1,1400,0,ITI,poldrack-single-stim,528,620730,0.0-6.3-33.3,go_nogo_deval,469,,<div></div>,32,1400,test,,,,,,,,,,,,-1,-1,500,0,fixation,poldrack-single-stim,529,621231,0.0-6.3-34.3,go_nogo_deval,469,,<div class = centerbox><div class = fixation>+</div></div>,none,500,test,,,,,,,,,,,,-1,-1,850,0,stim,poldrack-single-stim,530,622083,0.0-6.3-35.3,go_nogo_deval,469,,<img class = center src='/static/experiments/go_nogo_deval/images/purple_triangle.png'></img>,32,850,test,purple_triangle,nogo1,-1,11,3,,,,,,,-1,-1,1400,0,ITI,poldrack-single-stim,531,623483,0.0-6.3-36.3,go_nogo_deval,469,,<div></div>,32,1400,test,,,,,,,,,,,,-1,-1,500,0,fixation,poldrack-single-stim,532,623984,0.0-6.3-37.3,go_nogo_deval,469,,<div class = centerbox><div class = fixation>+</div></div>,none,500,test,,,,,,,,,,,,380,32,850,0,stim,poldrack-single-stim,533,624835,0.0-6.3-38.3,go_nogo_deval,469,,<img class = center src='/static/experiments/go_nogo_deval/images/green_circle.png'></img>,32,850,test,green_circle,go1,32,12,3,,,,,,,-1,-1,1400,0,ITI,poldrack-single-stim,534,626236,0.0-6.3-39.3,go_nogo_deval,469,,<div></div>,32,1400,test,,,,,,,,,,,,-1,-1,500,0,fixation,poldrack-single-stim,535,626738,0.0-6.3-40.3,go_nogo_deval,469,,<div class = centerbox><div class = fixation>+</div></div>,none,500,test,,,,,,,,,,,,406,32,850,0,stim,poldrack-single-stim,536,627589,0.0-6.3-41.3,go_nogo_deval,469,,<img class = center src='/static/experiments/go_nogo_deval/images/blue_rhombus.png'></img>,32,850,test,blue_rhombus,go2,32,13,3,,,,,,,-1,-1,1400,0,ITI,poldrack-single-stim,537,628989,0.0-6.3-42.3,go_nogo_deval,469,,<div></div>,32,1400,test,,,,,,,,,,,,-1,-1,500,0,fixation,poldrack-single-stim,538,629490,0.0-6.3-43.3,go_nogo_deval,469,,<div class = centerbox><div class = fixation>+</div></div>,none,500,test,,,,,,,,,,,,420,32,850,0,stim,poldrack-single-stim,539,630342,0.0-6.3-44.3,go_nogo_deval,469,,<img class = center src='/static/experiments/go_nogo_deval/images/green_circle.png'></img>,32,850,test,green_circle,go1,32,14,3,,,,,,,-1,-1,1400,0,ITI,poldrack-single-stim,540,631744,0.0-6.3-45.3,go_nogo_deval,469,,<div></div>,32,1400,test,,,,,,,,,,,,-1,-1,500,0,fixation,poldrack-single-stim,541,632246,0.0-6.3-46.3,go_nogo_deval,469,,<div class = centerbox><div class = fixation>+</div></div>,none,500,test,,,,,,,,,,,,343,32,850,0,stim,poldrack-single-stim,542,633097,0.0-6.3-47.3,go_nogo_deval,469,,<img class = center src='/static/experiments/go_nogo_deval/images/green_circle.png'></img>,32,850,test,green_circle,go1,32,15,3,,,,,,,-1,-1,1400,0,ITI,poldrack-single-stim,543,634498,0.0-6.3-48.3,go_nogo_deval,469,,<div></div>,32,1400,test,,,,,,,,,,,,-1,-1,500,0,fixation,poldrack-single-stim,544,635000,0.0-6.3-49.3,go_nogo_deval,469,,<div class = centerbox><div class = fixation>+</div></div>,none,500,test,,,,,,,,,,,,356,32,850,0,stim,poldrack-single-stim,545,635851,0.0-6.3-50.3,go_nogo_deval,469,,<img class = center src='/static/experiments/go_nogo_deval/images/green_circle.png'></img>,32,850,test,green_circle,go1,32,16,3,,,,,,,-1,-1,1400,0,ITI,poldrack-single-stim,546,637253,0.0-6.3-51.3,go_nogo_deval,469,,<div></div>,32,1400,test,,,,,,,,,,,,-1,-1,500,0,fixation,poldrack-single-stim,547,637754,0.0-6.3-52.3,go_nogo_deval,469,,<div class = centerbox><div class = fixation>+</div></div>,none,500,test,,,,,,,,,,,,-1,-1,850,0,stim,poldrack-single-stim,548,638606,0.0-6.3-53.3,go_nogo_deval,469,,<img class = center src='/static/experiments/go_nogo_deval/images/purple_triangle.png'></img>,32,850,test,purple_triangle,nogo1,-1,17,3,,,,,,,-1,-1,1400,0,ITI,poldrack-single-stim,549,640006,0.0-6.3-54.3,go_nogo_deval,469,,<div></div>,32,1400,test,,,,,,,,,,,,-1,-1,500,0,fixation,poldrack-single-stim,550,640508,0.0-6.3-55.3,go_nogo_deval,469,,<div class = centerbox><div class = fixation>+</div></div>,none,500,test,,,,,,,,,,,,373,32,850,0,stim,poldrack-single-stim,551,641359,0.0-6.3-56.3,go_nogo_deval,469,,<img class = center src='/static/experiments/go_nogo_deval/images/blue_rhombus.png'></img>,32,850,test,blue_rhombus,go2,32,18,3,,,,,,,-1,-1,1400,0,ITI,poldrack-single-stim,552,642761,0.0-6.3-57.3,go_nogo_deval,469,,<div></div>,32,1400,test,,,,,,,,,,,,-1,-1,500,0,fixation,poldrack-single-stim,553,643263,0.0-6.3-58.3,go_nogo_deval,469,,<div class = centerbox><div class = fixation>+</div></div>,none,500,test,,,,,,,,,,,,-1,-1,850,0,stim,poldrack-single-stim,554,644115,0.0-6.3-59.3,go_nogo_deval,469,,<img class = center src='/static/experiments/go_nogo_deval/images/purple_triangle.png'></img>,32,850,test,purple_triangle,nogo1,-1,19,3,,,,,,,-1,-1,1400,0,ITI,poldrack-single-stim,555,645516,0.0-6.3-60.3,go_nogo_deval,469,,<div></div>,32,1400,test,,,,,,,,,,,,-1,-1,500,0,fixation,poldrack-single-stim,556,646018,0.0-6.3-61.3,go_nogo_deval,469,,<div class = centerbox><div class = fixation>+</div></div>,none,500,test,,,,,,,,,,,,330,32,850,0,stim,poldrack-single-stim,557,646869,0.0-6.3-62.3,go_nogo_deval,469,,<img class = center src='/static/experiments/go_nogo_deval/images/blue_rhombus.png'></img>,32,850,test,blue_rhombus,go2,32,20,3,,,,,,,-1,-1,1400,0,ITI,poldrack-single-stim,558,648271,0.0-6.3-63.3,go_nogo_deval,469,,<div></div>,32,1400,test,,,,,,,,,,,,-1,-1,500,0,fixation,poldrack-single-stim,559,648772,0.0-6.3-64.3,go_nogo_deval,469,,<div class = centerbox><div class = fixation>+</div></div>,none,500,test,,,,,,,,,,,,-1,-1,850,0,stim,poldrack-single-stim,560,649623,0.0-6.3-65.3,go_nogo_deval,469,,<img class = center src='/static/experiments/go_nogo_deval/images/purple_triangle.png'></img>,32,850,test,purple_triangle,nogo1,-1,21,3,,,,,,,-1,-1,1400,0,ITI,poldrack-single-stim,561,651024,0.0-6.3-66.3,go_nogo_deval,469,,<div></div>,32,1400,test,,,,,,,,,,,,-1,-1,500,0,fixation,poldrack-single-stim,562,651526,0.0-6.3-67.3,go_nogo_deval,469,,<div class = centerbox><div class = fixation>+</div></div>,none,500,test,,,,,,,,,,,,-1,-1,850,0,stim,poldrack-single-stim,563,652378,0.0-6.3-68.3,go_nogo_deval,469,,<img class = center src='/static/experiments/go_nogo_deval/images/purple_triangle.png'></img>,32,850,test,purple_triangle,nogo1,-1,22,3,,,,,,,-1,-1,1400,0,ITI,poldrack-single-stim,564,653780,0.0-6.3-69.3,go_nogo_deval,469,,<div></div>,32,1400,test,,,,,,,,,,,,-1,-1,500,0,fixation,poldrack-single-stim,565,654281,0.0-6.3-70.3,go_nogo_deval,469,,<div class = centerbox><div class = fixation>+</div></div>,none,500,test,,,,,,,,,,,,370,32,850,0,stim,poldrack-single-stim,566,655132,0.0-6.3-71.3,go_nogo_deval,469,,<img class = center src='/static/experiments/go_nogo_deval/images/green_circle.png'></img>,32,850,test,green_circle,go1,32,23,3,,,,,,,-1,-1,1400,0,ITI,poldrack-single-stim,567,656534,0.0-6.3-72.3,go_nogo_deval,469,,<div></div>,32,1400,test,,,,,,,,,,,,-1,-1,500,0,fixation,poldrack-single-stim,568,657036,0.0-6.3-73.3,go_nogo_deval,469,,<div class = centerbox><div class = fixation>+</div></div>,none,500,test,,,,,,,,,,,,382,32,850,0,stim,poldrack-single-stim,569,657887,0.0-6.3-74.3,go_nogo_deval,469,,<img class = center src='/static/experiments/go_nogo_deval/images/green_circle.png'></img>,32,850,test,green_circle,go1,32,24,3,,,,,,,-1,-1,1400,0,ITI,poldrack-single-stim,570,659288,0.0-6.3-75.3,go_nogo_deval,469,,<div></div>,32,1400,test,,,,,,,,,,,,-1,-1,500,0,fixation,poldrack-single-stim,571,659790,0.0-6.3-76.3,go_nogo_deval,469,,<div class = centerbox><div class = fixation>+</div></div>,none,500,test,,,,,,,,,,,,384,32,850,0,stim,poldrack-single-stim,572,660642,0.0-6.3-77.3,go_nogo_deval,469,,<img class = center src='/static/experiments/go_nogo_deval/images/blue_rhombus.png'></img>,32,850,test,blue_rhombus,go2,32,25,3,,,,,,,-1,-1,1400,0,ITI,poldrack-single-stim,573,662044,0.0-6.3-78.3,go_nogo_deval,469,,<div></div>,32,1400,test,,,,,,,,,,,