text,rt,key_press,block_duration,timing_post_trial,trial_id,trial_type,trial_index,time_elapsed,internal_node_id,exp_id,subject_ID,view_history,stimulus,possible_responses,stim_duration,exp_stage,stim,go_nogo_type,correct_response,current_trial,current_block,chosenStim,chosenCond,stimLeft,cond_left,stimRight,cond_right<div class = centerbox><p class = center-block-text>Welcome to the task!</p><p class = center-block-text>Press<strong> enter</strong> to continue.</p></div>,2411,13,2411,0,welcome,poldrack-text,0,2412,0.0-0.0,go_nogo_deval,433,,,,,,,,,,,,,,,,,44687,,,,instruction,poldrack-instructions,1,47101,0.0-1.0,go_nogo_deval,433,"[{""page_index"":0,""viewing_time"":3432},{""page_index"":1,""viewing_time"":41254}]",,,,,,,,,,,,,,,,5833,13,5833,0,stop_intro_phase1,poldrack-single-stim,2,53937,0.0-2.0,go_nogo_deval,433,,"<div class = centerbox><p class = block-text>We will now start the practice for the experiment.<br><br>For these trials, you must press the <strong>spacebar </strong> or have <strong>no response</strong> depending on the shape of the stimulus.  Make sure to respond as quickly and accurately as possible to the shape. <br><br> The responses for each shape are as follows: <ul list-text><li>circle: spacebar</li><li>pentagon: spacebar</li><li>triangle: no response</li><li>rhombus: no response</li></ul></p><p class = block-text>Remember these rules before you proceed.</p><p class = block-text>Press <strong> enter</strong> to begin.</p></div>",13,5833,,,,,,,,,,,,,3385,13,3385,0,practice-no-stop-feedback,poldrack-single-stim,3,57324,0.0-3.0-0.0,go_nogo_deval,433,,<div class = centerbox><p class = block-text>We will now start with a practice session. In this practice concentrate on responding quickly and accurately to each stimuli unless it requires no response.</p><p class = block-text>Press enter to continue.</p></div>,13,3385,,,,,,,,,,,,,-1,-1,500,0,prompt_fixation,poldrack-single-stim,4,57827,0.0-3.0-1.0,go_nogo_deval,433,,<div class = centerbox><div class = fixation>+</div></div>,none,500,practice,,,,,,,,,,,,-1,-1,850,0,stim,poldrack-single-stim,5,58679,0.0-3.0-2.0,go_nogo_deval,433,,<img class = center src='/static/experiments/go_nogo_deval/images/blue_triangle.png'></img>,32,850,practice,blue_triangle,nogo1,-1,0,0,,,,,,,-1,-1,1400,0,ITI,poldrack-single-stim,6,60082,0.0-3.0-3.0,go_nogo_deval,433,,<div></div>,32,1400,practice,,,,,,,,,,,,-1,-1,500,0,prompt_fixation,poldrack-single-stim,7,60584,0.0-3.0-4.0,go_nogo_deval,433,,<div class = centerbox><div class = fixation>+</div></div>,none,500,practice,,,,,,,,,,,,609,32,850,0,stim,poldrack-single-stim,8,61435,0.0-3.0-5.0,go_nogo_deval,433,,<img class = center src='/static/experiments/go_nogo_deval/images/green_pentagon.png'></img>,32,850,practice,green_pentagon,go2,32,1,0,,,,,,,-1,-1,1400,0,ITI,poldrack-single-stim,9,62837,0.0-3.0-6.0,go_nogo_deval,433,,<div></div>,32,1400,practice,,,,,,,,,,,,-1,-1,500,0,prompt_fixation,poldrack-single-stim,10,63338,0.0-3.0-7.0,go_nogo_deval,433,,<div class = centerbox><div class = fixation>+</div></div>,none,500,practice,,,,,,,,,,,,374,32,850,0,stim,poldrack-single-stim,11,64190,0.0-3.0-8.0,go_nogo_deval,433,,<img class = center src='/static/experiments/go_nogo_deval/images/purple_circle.png'></img>,32,850,practice,purple_circle,go1,32,2,0,,,,,,,-1,-1,1400,0,ITI,poldrack-single-stim,12,65592,0.0-3.0-9.0,go_nogo_deval,433,,<div></div>,32,1400,practice,,,,,,,,,,,,-1,-1,500,0,prompt_fixation,poldrack-single-stim,13,66094,0.0-3.0-10.0,go_nogo_deval,433,,<div class = centerbox><div class = fixation>+</div></div>,none,500,practice,,,,,,,,,,,,475,32,850,0,stim,poldrack-single-stim,14,66946,0.0-3.0-11.0,go_nogo_deval,433,,<img class = center src='/static/experiments/go_nogo_deval/images/purple_circle.png'></img>,32,850,practice,purple_circle,go1,32,3,0,,,,,,,-1,-1,1400,0,ITI,poldrack-single-stim,15,68348,0.0-3.0-12.0,go_nogo_deval,433,,<div></div>,32,1400,practice,,,,,,,,,,,,-1,-1,500,0,prompt_fixation,poldrack-single-stim,16,68850,0.0-3.0-13.0,go_nogo_deval,433,,<div class = centerbox><div class = fixation>+</div></div>,none,500,practice,,,,,,,,,,,,-1,-1,850,0,stim,poldrack-single-stim,17,69701,0.0-3.0-14.0,go_nogo_deval,433,,<img class = center src='/static/experiments/go_nogo_deval/images/blue_triangle.png'></img>,32,850,practice,blue_triangle,nogo1,-1,4,0,,,,,,,-1,-1,1400,0,ITI,poldrack-single-stim,18,71103,0.0-3.0-15.0,go_nogo_deval,433,,<div></div>,32,1400,practice,,,,,,,,,,,,-1,-1,500,0,prompt_fixation,poldrack-single-stim,19,71604,0.0-3.0-16.0,go_nogo_deval,433,,<div class = centerbox><div class = fixation>+</div></div>,none,500,practice,,,,,,,,,,,,546,32,850,0,stim,poldrack-single-stim,20,72456,0.0-3.0-17.0,go_nogo_deval,433,,<img class = center src='/static/experiments/go_nogo_deval/images/green_pentagon.png'></img>,32,850,practice,green_pentagon,go2,32,5,0,,,,,,,-1,-1,1400,0,ITI,poldrack-single-stim,21,73858,0.0-3.0-18.0,go_nogo_deval,433,,<div></div>,32,1400,practice,,,,,,,,,,,,-1,-1,500,0,prompt_fixation,poldrack-single-stim,22,74359,0.0-3.0-19.0,go_nogo_deval,433,,<div class = centerbox><div class = fixation>+</div></div>,none,500,practice,,,,,,,,,,,,614,32,850,0,stim,poldrack-single-stim,23,75212,0.0-3.0-20.0,go_nogo_deval,433,,<img class = center src='/static/experiments/go_nogo_deval/images/purple_circle.png'></img>,32,850,practice,purple_circle,go1,32,6,0,,,,,,,-1,-1,1400,0,ITI,poldrack-single-stim,24,76614,0.0-3.0-21.0,go_nogo_deval,433,,<div></div>,32,1400,practice,,,,,,,,,,,,-1,-1,500,0,prompt_fixation,poldrack-single-stim,25,77116,0.0-3.0-22.0,go_nogo_deval,433,,<div class = centerbox><div class = fixation>+</div></div>,none,500,practice,,,,,,,,,,,,-1,-1,850,0,stim,poldrack-single-stim,26,77968,0.0-3.0-23.0,go_nogo_deval,433,,<img class = center src='/static/experiments/go_nogo_deval/images/red_rhombus.png'></img>,32,850,practice,red_rhombus,nogo2,-1,7,0,,,,,,,-1,-1,1400,0,ITI,poldrack-single-stim,27,79370,0.0-3.0-24.0,go_nogo_deval,433,,<div></div>,32,1400,practice,,,,,,,,,,,,-1,-1,500,0,prompt_fixation,poldrack-single-stim,28,79871,0.0-3.0-25.0,go_nogo_deval,433,,<div class = centerbox><div class = fixation>+</div></div>,none,500,practice,,,,,,,,,,,,559,32,850,0,stim,poldrack-single-stim,29,80723,0.0-3.0-26.0,go_nogo_deval,433,,<img class = center src='/static/experiments/go_nogo_deval/images/purple_circle.png'></img>,32,850,practice,purple_circle,go1,32,8,0,,,,,,,-1,-1,1400,0,ITI,poldrack-single-stim,30,82125,0.0-3.0-27.0,go_nogo_deval,433,,<div></div>,32,1400,practice,,,,,,,,,,,,-1,-1,500,0,prompt_fixation,poldrack-single-stim,31,82627,0.0-3.0-28.0,go_nogo_deval,433,,<div class = centerbox><div class = fixation>+</div></div>,none,500,practice,,,,,,,,,,,,414,32,850,0,stim,poldrack-single-stim,32,83478,0.0-3.0-29.0,go_nogo_deval,433,,<img class = center src='/static/experiments/go_nogo_deval/images/green_pentagon.png'></img>,32,850,practice,green_pentagon,go2,32,9,0,,,,,,,-1,-1,1400,0,ITI,poldrack-single-stim,33,84880,0.0-3.0-30.0,go_nogo_deval,433,,<div></div>,32,1400,practice,,,,,,,,,,,,-1,-1,500,0,prompt_fixation,poldrack-single-stim,34,85382,0.0-3.0-31.0,go_nogo_deval,433,,<div class = centerbox><div class = fixation>+</div></div>,none,500,practice,,,,,,,,,,,,-1,-1,850,0,stim,poldrack-single-stim,35,86234,0.0-3.0-32.0,go_nogo_deval,433,,<img class = center src='/static/experiments/go_nogo_deval/images/red_rhombus.png'></img>,32,850,practice,red_rhombus,nogo2,-1,10,0,,,,,,,-1,-1,1400,0,ITI,poldrack-single-stim,36,87636,0.0-3.0-33.0,go_nogo_deval,433,,<div></div>,32,1400,practice,,,,,,,,,,,,-1,-1,500,0,prompt_fixation,poldrack-single-stim,37,88137,0.0-3.0-34.0,go_nogo_deval,433,,<div class = centerbox><div class = fixation>+</div></div>,none,500,practice,,,,,,,,,,,,540,32,850,0,stim,poldrack-single-stim,38,88989,0.0-3.0-35.0,go_nogo_deval,433,,<img class = center src='/static/experiments/go_nogo_deval/images/green_pentagon.png'></img>,32,850,practice,green_pentagon,go2,32,11,0,,,,,,,-1,-1,1400,0,ITI,poldrack-single-stim,39,90390,0.0-3.0-36.0,go_nogo_deval,433,,<div></div>,32,1400,practice,,,,,,,,,,,,-1,-1,500,0,prompt_fixation,poldrack-single-stim,40,90892,0.0-3.0-37.0,go_nogo_deval,433,,<div class = centerbox><div class = fixation>+</div></div>,none,500,practice,,,,,,,,,,,,326,32,850,0,stim,poldrack-single-stim,41,91744,0.0-3.0-38.0,go_nogo_deval,433,,<img class = center src='/static/experiments/go_nogo_deval/images/purple_circle.png'></img>,32,850,practice,purple_circle,go1,32,12,0,,,,,,,-1,-1,1400,0,ITI,poldrack-single-stim,42,93146,0.0-3.0-39.0,go_nogo_deval,433,,<div></div>,32,1400,practice,,,,,,,,,,,,-1,-1,500,0,prompt_fixation,poldrack-single-stim,43,93648,0.0-3.0-40.0,go_nogo_deval,433,,<div class = centerbox><div class = fixation>+</div></div>,none,500,practice,,,,,,,,,,,,395,32,850,0,stim,poldrack-single-stim,44,94500,0.0-3.0-41.0,go_nogo_deval,433,,<img class = center src='/static/experiments/go_nogo_deval/images/green_pentagon.png'></img>,32,850,practice,green_pentagon,go2,32,13,0,,,,,,,-1,-1,1400,0,ITI,poldrack-single-stim,45,95902,0.0-3.0-42.0,go_nogo_deval,433,,<div></div>,32,1400,practice,,,,,,,,,,,,-1,-1,500,0,prompt_fixation,poldrack-single-stim,46,96404,0.0-3.0-43.0,go_nogo_deval,433,,<div class = centerbox><div class = fixation>+</div></div>,none,500,practice,,,,,,,,,,,,496,32,850,0,stim,poldrack-single-stim,47,97256,0.0-3.0-44.0,go_nogo_deval,433,,<img class = center src='/static/experiments/go_nogo_deval/images/purple_circle.png'></img>,32,850,practice,purple_circle,go1,32,14,0,,,,,,,-1,-1,1400,0,ITI,poldrack-single-stim,48,98658,0.0-3.0-45.0,go_nogo_deval,433,,<div></div>,32,1400,practice,,,,,,,,,,,,-1,-1,500,0,prompt_fixation,poldrack-single-stim,49,99159,0.0-3.0-46.0,go_nogo_deval,433,,<div class = centerbox><div class = fixation>+</div></div>,none,500,practice,,,,,,,,,,,,-1,-1,850,0,stim,poldrack-single-stim,50,100012,0.0-3.0-47.0,go_nogo_deval,433,,<img class = center src='/static/experiments/go_nogo_deval/images/red_rhombus.png'></img>,32,850,practice,red_rhombus,nogo2,-1,15,0,,,,,,,-1,-1,1400,0,ITI,poldrack-single-stim,51,101415,0.0-3.0-48.0,go_nogo_deval,433,,<div></div>,32,1400,practice,,,,,,,,,,,,-1,-1,500,0,prompt_fixation,poldrack-single-stim,52,101917,0.0-3.0-49.0,go_nogo_deval,433,,<div class = centerbox><div class = fixation>+</div></div>,none,500,practice,,,,,,,,,,,,-1,-1,850,0,stim,poldrack-single-stim,53,102769,0.0-3.0-50.0,go_nogo_deval,433,,<img class = center src='/static/experiments/go_nogo_deval/images/blue_triangle.png'></img>,32,850,practice,blue_triangle,nogo1,-1,16,0,,,,,,,-1,-1,1400,0,ITI,poldrack-single-stim,54,104171,0.0-3.0-51.0,go_nogo_deval,433,,<div></div>,32,1400,practice,,,,,,,,,,,,-1,-1,500,0,prompt_fixation,poldrack-single-stim,55,104673,0.0-3.0-52.0,go_nogo_deval,433,,<div class = centerbox><div class = fixation>+</div></div>,none,500,practice,,,,,,,,,,,,418,32,850,0,stim,poldrack-single-stim,56,105525,0.0-3.0-53.0,go_nogo_deval,433,,<img class = center src='/static/experiments/go_nogo_deval/images/green_pentagon.png'></img>,32,850,practice,green_pentagon,go2,32,17,0,,,,,,,-1,-1,1400,0,ITI,poldrack-single-stim,57,106926,0.0-3.0-54.0,go_nogo_deval,433,,<div></div>,32,1400,practice,,,,,,,,,,,,4553,13,4553,0,practice-no-stop-feedback,poldrack-single-stim,58,111481,0.0-4.0,go_nogo_deval,433,,<div class = centerbox><p class = block-text><br>Please take this time to read your feedback and to take a short break! Press enter to continue</p><p class = block-text><strong>Average reaction time:  481 ms. Accuracy: 100%</strong></p><p class = block-text>Done with this practice.</p></div>,13,4553,,,,,,,,,,,,,37418,13,37418,0,main_stop_intro_phase3,poldrack-single-stim,59,148899,0.0-5.0,go_nogo_deval,433,,"<div class = centerbox><p class = block-text>We will now start the main phase of the experiment.<br><br>These trials are the same as the trials that you have just completed. <br><br>The rules for each shape are as follows:  <br><ul list-text><li>circle: spacebar</li><li>pentagon: spacebar</li><li>triangle: no response</li><li>rhombus: no response</li></ul></p><p class = block-text>Remember these rules before you proceed, as they will no longer be presented during the trial.</p><p class = block-text>Press <strong> enter</strong> to begin.</p></div>",13,37418,,,,,,,,,,,,,3430,13,3430,0,practice-no-stop-feedback,poldrack-single-stim,60,152330,0.0-6.0-0.0,go_nogo_deval,433,,"<div class = centerbox><p class = block-text>We will now start with a test session. In this test, concentrate on responding quickly and accurately to each stimuli unless it requires no response.</p><p class = block-text>Press enter to continue.</p></div>",13,3430,,,,,,,,,,,,,-1,-1,500,0,fixation,poldrack-single-stim,61,152832,0.0-6.0-1.0,go_nogo_deval,433,,<div class = centerbox><div class = fixation>+</div></div>,none,500,test,,,,,,,,,,,,465,32,850,0,stim,poldrack-single-stim,62,153683,0.0-6.0-2.0,go_nogo_deval,433,,<img class = center src='/static/experiments/go_nogo_deval/images/green_pentagon.png'></img>,32,850,test,green_pentagon,go2,32,0,0,,,,,,,-1,-1,1400,0,ITI,poldrack-single-stim,63,155085,0.0-6.0-3.0,go_nogo_deval,433,,<div></div>,32,1400,test,,,,,,,,,,,,-1,-1,500,0,fixation,poldrack-single-stim,64,155587,0.0-6.0-4.0,go_nogo_deval,433,,<div class = centerbox><div class = fixation>+</div></div>,none,500,test,,,,,,,,,,,,432,32,850,0,stim,poldrack-single-stim,65,156439,0.0-6.0-5.0,go_nogo_deval,433,,<img class = center src='/static/experiments/go_nogo_deval/images/green_pentagon.png'></img>,32,850,test,green_pentagon,go2,32,1,0,,,,,,,-1,-1,1400,0,ITI,poldrack-single-stim,66,157841,0.0-6.0-6.0,go_nogo_deval,433,,<div></div>,32,1400,test,,,,,,,,,,,,-1,-1,500,0,fixation,poldrack-single-stim,67,158342,0.0-6.0-7.0,go_nogo_deval,433,,<div class = centerbox><div class = fixation>+</div></div>,none,500,test,,,,,,,,,,,,411,32,850,0,stim,poldrack-single-stim,68,159194,0.0-6.0-8.0,go_nogo_deval,433,,<img class = center src='/static/experiments/go_nogo_deval/images/purple_circle.png'></img>,32,850,test,purple_circle,go1,32,2,0,,,,,,,-1,-1,1400,0,ITI,poldrack-single-stim,69,160596,0.0-6.0-9.0,go_nogo_deval,433,,<div></div>,32,1400,test,,,,,,,,,,,,-1,-1,500,0,fixation,poldrack-single-stim,70,161098,0.0-6.0-10.0,go_nogo_deval,433,,<div class = centerbox><div class = fixation>+</div></div>,none,500,test,,,,,,,,,,,,356,32,850,0,stim,poldrack-single-stim,71,161949,0.0-6.0-11.0,go_nogo_deval,433,,<img class = center src='/static/experiments/go_nogo_deval/images/purple_circle.png'></img>,32,850,test,purple_circle,go1,32,3,0,,,,,,,-1,-1,1400,0,ITI,poldrack-single-stim,72,163351,0.0-6.0-12.0,go_nogo_deval,433,,<div></div>,32,1400,test,,,,,,,,,,,,-1,-1,500,0,fixation,poldrack-single-stim,73,163853,0.0-6.0-13.0,go_nogo_deval,433,,<div class = centerbox><div class = fixation>+</div></div>,none,500,test,,,,,,,,,,,,289,32,850,0,stim,poldrack-single-stim,74,164705,0.0-6.0-14.0,go_nogo_deval,433,,<img class = center src='/static/experiments/go_nogo_deval/images/green_pentagon.png'></img>,32,850,test,green_pentagon,go2,32,4,0,,,,,,,-1,-1,1400,0,ITI,poldrack-single-stim,75,166107,0.0-6.0-15.0,go_nogo_deval,433,,<div></div>,32,1400,test,,,,,,,,,,,,-1,-1,500,0,fixation,poldrack-single-stim,76,166608,0.0-6.0-16.0,go_nogo_deval,433,,<div class = centerbox><div class = fixation>+</div></div>,none,500,test,,,,,,,,,,,,313,32,850,0,stim,poldrack-single-stim,77,167460,0.0-6.0-17.0,go_nogo_deval,433,,<img class = center src='/static/experiments/go_nogo_deval/images/green_pentagon.png'></img>,32,850,test,green_pentagon,go2,32,5,0,,,,,,,-1,-1,1400,0,ITI,poldrack-single-stim,78,168861,0.0-6.0-18.0,go_nogo_deval,433,,<div></div>,32,1400,test,,,,,,,,,,,,-1,-1,500,0,fixation,poldrack-single-stim,79,169363,0.0-6.0-19.0,go_nogo_deval,433,,<div class = centerbox><div class = fixation>+</div></div>,none,500,test,,,,,,,,,,,,303,32,850,0,stim,poldrack-single-stim,80,170215,0.0-6.0-20.0,go_nogo_deval,433,,<img class = center src='/static/experiments/go_nogo_deval/images/purple_circle.png'></img>,32,850,test,purple_circle,go1,32,6,0,,,,,,,-1,-1,1400,0,ITI,poldrack-single-stim,81,171617,0.0-6.0-21.0,go_nogo_deval,433,,<div></div>,32,1400,test,,,,,,,,,,,,-1,-1,500,0,fixation,poldrack-single-stim,82,172119,0.0-6.0-22.0,go_nogo_deval,433,,<div class = centerbox><div class = fixation>+</div></div>,none,500,test,,,,,,,,,,,,326,32,850,0,stim,poldrack-single-stim,83,172971,0.0-6.0-23.0,go_nogo_deval,433,,<img class = center src='/static/experiments/go_nogo_deval/images/green_pentagon.png'></img>,32,850,test,green_pentagon,go2,32,7,0,,,,,,,-1,-1,1400,0,ITI,poldrack-single-stim,84,174371,0.0-6.0-24.0,go_nogo_deval,433,,<div></div>,32,1400,test,,,,,,,,,,,,-1,-1,500,0,fixation,poldrack-single-stim,85,174873,0.0-6.0-25.0,go_nogo_deval,433,,<div class = centerbox><div class = fixation>+</div></div>,none,500,test,,,,,,,,,,,,372,32,850,0,stim,poldrack-single-stim,86,175725,0.0-6.0-26.0,go_nogo_deval,433,,<img class = center src='/static/experiments/go_nogo_deval/images/purple_circle.png'></img>,32,850,test,purple_circle,go1,32,8,0,,,,,,,-1,-1,1400,0,ITI,poldrack-single-stim,87,177127,0.0-6.0-27.0,go_nogo_deval,433,,<div></div>,32,1400,test,,,,,,,,,,,,-1,-1,500,0,fixation,poldrack-single-stim,88,177628,0.0-6.0-28.0,go_nogo_deval,433,,<div class = centerbox><div class = fixation>+</div></div>,none,500,test,,,,,,,,,,,,-1,-1,850,0,stim,poldrack-single-stim,89,178480,0.0-6.0-29.0,go_nogo_deval,433,,<img class = center src='/static/experiments/go_nogo_deval/images/red_rhombus.png'></img>,32,850,test,red_rhombus,nogo2,-1,9,0,,,,,,,-1,-1,1400,0,ITI,poldrack-single-stim,90,179881,0.0-6.0-30.0,go_nogo_deval,433,,<div></div>,32,1400,test,,,,,,,,,,,,-1,-1,500,0,fixation,poldrack-single-stim,91,180383,0.0-6.0-31.0,go_nogo_deval,433,,<div class = centerbox><div class = fixation>+</div></div>,none,500,test,,,,,,,,,,,,397,32,850,0,stim,poldrack-single-stim,92,181235,0.0-6.0-32.0,go_nogo_deval,433,,<img class = center src='/static/experiments/go_nogo_deval/images/purple_circle.png'></img>,32,850,test,purple_circle,go1,32,10,0,,,,,,,-1,-1,1400,0,ITI,poldrack-single-stim,93,182637,0.0-6.0-33.0,go_nogo_deval,433,,<div></div>,32,1400,test,,,,,,,,,,,,-1,-1,500,0,fixation,poldrack-single-stim,94,183139,0.0-6.0-34.0,go_nogo_deval,433,,<div class = centerbox><div class = fixation>+</div></div>,none,500,test,,,,,,,,,,,,444,32,850,0,stim,poldrack-single-stim,95,183990,0.0-6.0-35.0,go_nogo_deval,433,,<img class = center src='/static/experiments/go_nogo_deval/images/purple_circle.png'></img>,32,850,test,purple_circle,go1,32,11,0,,,,,,,-1,-1,1400,0,ITI,poldrack-single-stim,96,185392,0.0-6.0-36.0,go_nogo_deval,433,,<div></div>,32,1400,test,,,,,,,,,,,,-1,-1,500,0,fixation,poldrack-single-stim,97,185894,0.0-6.0-37.0,go_nogo_deval,433,,<div class = centerbox><div class = fixation>+</div></div>,none,500,test,,,,,,,,,,,,-1,-1,850,0,stim,poldrack-single-stim,98,186746,0.0-6.0-38.0,go_nogo_deval,433,,<img class = center src='/static/experiments/go_nogo_deval/images/red_rhombus.png'></img>,32,850,test,red_rhombus,nogo2,-1,12,0,,,,,,,-1,-1,1400,0,ITI,poldrack-single-stim,99,188148,0.0-6.0-39.0,go_nogo_deval,433,,<div></div>,32,1400,test,,,,,,,,,,,,-1,-1,500,0,fixation,poldrack-single-stim,100,188650,0.0-6.0-40.0,go_nogo_deval,433,,<div class = centerbox><div class = fixation>+</div></div>,none,500,test,,,,,,,,,,,,738,32,850,0,stim,poldrack-single-stim,101,189502,0.0-6.0-41.0,go_nogo_deval,433,,<img class = center src='/static/experiments/go_nogo_deval/images/purple_circle.png'></img>,32,850,test,purple_circle,go1,32,13,0,,,,,,,-1,-1,1400,0,ITI,poldrack-single-stim,102,190903,0.0-6.0-42.0,go_nogo_deval,433,,<div></div>,32,1400,test,,,,,,,,,,,,-1,-1,500,0,fixation,poldrack-single-stim,103,191404,0.0-6.0-43.0,go_nogo_deval,433,,<div class = centerbox><div class = fixation>+</div></div>,none,500,test,,,,,,,,,,,,391,32,850,0,stim,poldrack-single-stim,104,192256,0.0-6.0-44.0,go_nogo_deval,433,,<img class = center src='/static/experiments/go_nogo_deval/images/green_pentagon.png'></img>,32,850,test,green_pentagon,go2,32,14,0,,,,,,,-1,-1,1400,0,ITI,poldrack-single-stim,105,193657,0.0-6.0-45.0,go_nogo_deval,433,,<div></div>,32,1400,test,,,,,,,,,,,,-1,-1,500,0,fixation,poldrack-single-stim,106,194159,0.0-6.0-46.0,go_nogo_deval,433,,<div class = centerbox><div class = fixation>+</div></div>,none,500,test,,,,,,,,,,,,403,32,850,0,stim,poldrack-single-stim,107,195011,0.0-6.0-47.0,go_nogo_deval,433,,<img class = center src='/static/experiments/go_nogo_deval/images/purple_circle.png'></img>,32,850,test,purple_circle,go1,32,15,0,,,,,,,-1,-1,1400,0,ITI,poldrack-single-stim,108,196413,0.0-6.0-48.0,go_nogo_deval,433,,<div></div>,32,1400,test,,,,,,,,,,,,-1,-1,500,0,fixation,poldrack-single-stim,109,196913,0.0-6.0-49.0,go_nogo_deval,433,,<div class = centerbox><div class = fixation>+</div></div>,none,500,test,,,,,,,,,,,,-1,-1,850,0,stim,poldrack-single-stim,110,197765,0.0-6.0-50.0,go_nogo_deval,433,,<img class = center src='/static/experiments/go_nogo_deval/images/red_rhombus.png'></img>,32,850,test,red_rhombus,nogo2,-1,16,0,,,,,,,-1,-1,1400,0,ITI,poldrack-single-stim,111,199166,0.0-6.0-51.0,go_nogo_deval,433,,<div></div>,32,1400,test,,,,,,,,,,,,-1,-1,500,0,fixation,poldrack-single-stim,112,199668,0.0-6.0-52.0,go_nogo_deval,433,,<div class = centerbox><div class = fixation>+</div></div>,none,500,test,,,,,,,,,,,,-1,-1,850,0,stim,poldrack-single-stim,113,200520,0.0-6.0-53.0,go_nogo_deval,433,,<img class = center src='/static/experiments/go_nogo_deval/images/blue_triangle.png'></img>,32,850,test,blue_triangle,nogo1,-1,17,0,,,,,,,-1,-1,1400,0,ITI,poldrack-single-stim,114,201921,0.0-6.0-54.0,go_nogo_deval,433,,<div></div>,32,1400,test,,,,,,,,,,,,-1,-1,500,0,fixation,poldrack-single-stim,115,202423,0.0-6.0-55.0,go_nogo_deval,433,,<div class = centerbox><div class = fixation>+</div></div>,none,500,test,,,,,,,,,,,,431,32,850,0,stim,poldrack-single-stim,116,203275,0.0-6.0-56.0,go_nogo_deval,433,,<img class = center src='/static/experiments/go_nogo_deval/images/purple_circle.png'></img>,32,850,test,purple_circle,go1,32,18,0,,,,,,,-1,-1,1400,0,ITI,poldrack-single-stim,117,204676,0.0-6.0-57.0,go_nogo_deval,433,,<div></div>,32,1400,test,,,,,,,,,,,,-1,-1,500,0,fixation,poldrack-single-stim,118,205177,0.0-6.0-58.0,go_nogo_deval,433,,<div class = centerbox><div class = fixation>+</div></div>,none,500,test,,,,,,,,,,,,422,32,850,0,stim,poldrack-single-stim,119,206029,0.0-6.0-59.0,go_nogo_deval,433,,<img class = center src='/static/experiments/go_nogo_deval/images/green_pentagon.png'></img>,32,850,test,green_pentagon,go2,32,19,0,,,,,,,-1,-1,1400,0,ITI,poldrack-single-stim,120,207431,0.0-6.0-60.0,go_nogo_deval,433,,<div></div>,32,1400,test,,,,,,,,,,,,-1,-1,500,0,fixation,poldrack-single-stim,121,207933,0.0-6.0-61.0,go_nogo_deval,433,,<div class = centerbox><div class = fixation>+</div></div>,none,500,test,,,,,,,,,,,,355,32,850,0,stim,poldrack-single-stim,122,208784,0.0-6.0-62.0,go_nogo_deval,433,,<img class = center src='/static/experiments/go_nogo_deval/images/purple_circle.png'></img>,32,850,test,purple_circle,go1,32,20,0,,,,,,,-1,-1,1400,0,ITI,poldrack-single-stim,123,210186,0.0-6.0-63.0,go_nogo_deval,433,,<div></div>,32,1400,test,,,,,,,,,,,,-1,-1,500,0,fixation,poldrack-single-stim,124,210688,0.0-6.0-64.0,go_nogo_deval,433,,<div class = centerbox><div class = fixation>+</div></div>,none,500,test,,,,,,,,,,,,356,32,850,0,stim,poldrack-single-stim,125,211539,0.0-6.0-65.0,go_nogo_deval,433,,<img class = center src='/static/experiments/go_nogo_deval/images/green_pentagon.png'></img>,32,850,test,green_pentagon,go2,32,21,0,,,,,,,-1,-1,1400,0,ITI,poldrack-single-stim,126,212941,0.0-6.0-66.0,go_nogo_deval,433,,<div></div>,32,1400,test,,,,,,,,,,,,-1,-1,500,0,fixation,poldrack-single-stim,127,213443,0.0-6.0-67.0,go_nogo_deval,433,,<div class = centerbox><div class = fixation>+</div></div>,none,500,test,,,,,,,,,,,,380,32,850,0,stim,poldrack-single-stim,128,214295,0.0-6.0-68.0,go_nogo_deval,433,,<img class = center src='/static/experiments/go_nogo_deval/images/purple_circle.png'></img>,32,850,test,purple_circle,go1,32,22,0,,,,,,,-1,-1,1400,0,ITI,poldrack-single-stim,129,215695,0.0-6.0-69.0,go_nogo_deval,433,,<div></div>,32,1400,test,,,,,,,,,,,,-1,-1,500,0,fixation,poldrack-single-stim,130,216197,0.0-6.0-70.0,go_nogo_deval,433,,<div class = centerbox><div class = fixation>+</div></div>,none,500,test,,,,,,,,,,,,348,32,850,0,stim,poldrack-single-stim,131,217049,0.0-6.0-71.0,go_nogo_deval,433,,<img class = center src='/static/experiments/go_nogo_deval/images/green_pentagon.png'></img>,32,850,test,green_pentagon,go2,32,23,0,,,,,,,-1,-1,1400,0,ITI,poldrack-single-stim,132,218452,0.0-6.0-72.0,go_nogo_deval,433,,<div></div>,32,1400,test,,,,,,,,,,,,-1,-1,500,0,fixation,poldrack-single-stim,133,218954,0.0-6.0-73.0,go_nogo_deval,433,,<div class = centerbox><div class = fixation>+</div></div>,none,500,test,,,,,,,,,,,,393,32,850,0,stim,poldrack-single-stim,134,219805,0.0-6.0-74.0,go_nogo_deval,433,,<img class = center src='/static/experiments/go_nogo_deval/images/purple_circle.png'></img>,32,850,test,purple_circle,go1,32,24,0,,,,,,,-1,-1,1400,0,ITI,poldrack-single-stim,135,221207,0.0-6.0-75.0,go_nogo_deval,433,,<div></div>,32,1400,test,,,,,,,,,,,,-1,-1,500,0,fixation,poldrack-single-stim,136,221709,0.0-6.0-76.0,go_nogo_deval,433,,<div class = centerbox><div class = fixation>+</div></div>,none,500,test,,,,,,,,,,,,360,32,850,0,stim,poldrack-single-stim,137,222561,0.0-6.0-77.0,go_nogo_deval,433,,<img class = center src='/static/experiments/go_nogo_deval/images/green_pentagon.png'></img>,32,850,test,green_pentagon,go2,32,25,0,,,,,,,-1,-1,1400,0,ITI,poldrack-single-stim,138,223962,0.0-6.0-78.0,go_nogo_deval,433,,<div></div>,32,1400,test,,,,,,,,,,,,-1,-1,500,0,fixation,poldrack-single-stim,139,224464,0.0-6.0-79.0,go_nogo_deval,433,,<div class = centerbox><div class = fixation>+</div></div>,none,500,test,,,,,,,,,,,,350,32,850,0,stim,poldrack-single-stim,140,225316,0.0-6.0-80.0,go_nogo_deval,433,,<img class = center src='/static/experiments/go_nogo_deval/images/green_pentagon.png'></img>,32,850,test,green_pentagon,go2,32,26,0,,,,,,,-1,-1,1400,0,ITI,poldrack-single-stim,141,226718,0.0-6.0-81.0,go_nogo_deval,433,,<div></div>,32,1400,test,,,,,,,,,,,,-1,-1,500,0,fixation,poldrack-single-stim,142,227220,0.0-6.0-82.0,go_nogo_deval,433,,<div class = centerbox><div class = fixation>+</div></div>,none,500,test,,,,,,,,,,,,-1,-1,850,0,stim,poldrack-single-stim,143,228071,0.0-6.0-83.0,go_nogo_deval,433,,<img class = center src='/static/experiments/go_nogo_deval/images/red_rhombus.png'></img>,32,850,test,red_rhombus,nogo2,-1,27,0,,,,,,,-1,-1,1400,0,ITI,poldrack-single-stim,144,229473,0.0-6.0-84.0,go_nogo_deval,433,,<div></div>,32,1400,test,,,,,,,,,,,,-1,-1,500,0,fixation,poldrack-single-stim,145,229975,0.0-6.0-85.0,go_nogo_deval,433,,<div class = centerbox><div class = fixation>+</div></div>,none,500,test,,,,,,,,,,,,-1,-1,850,0,stim,poldrack-single-stim,146,230827,0.0-6.0-86.0,go_nogo_deval,433,,<img class = center src='/static/experiments/go_nogo_deval/images/blue_triangle.png'></img>,32,850,test,blue_triangle,nogo1,-1,28,0,,,,,,,-1,-1,1400,0,ITI,poldrack-single-stim,147,232227,0.0-6.0-87.0,go_nogo_deval,433,,<div></div>,32,1400,test,,,,,,,,,,,,-1,-1,500,0,fixation,poldrack-single-stim,148,232729,0.0-6.0-88.0,go_nogo_deval,433,,<div class = centerbox><div class = fixation>+</div></div>,none,500,test,,,,,,,,,,,,377,32,850,0,stim,poldrack-single-stim,149,233580,0.0-6.0-89.0,go_nogo_deval,433,,<img class = center src='/static/experiments/go_nogo_deval/images/purple_circle.png'></img>,32,850,test,purple_circle,go1,32,29,0,,,,,,,-1,-1,1400,0,ITI,poldrack-single-stim,150,234981,0.0-6.0-90.0,go_nogo_deval,433,,<div></div>,32,1400,test,,,,,,,,,,,,-1,-1,500,0,fixation,poldrack-single-stim,151,235482,0.0-6.0-91.0,go_nogo_deval,433,,<div class = centerbox><div class = fixation>+</div></div>,none,500,test,,,,,,,,,,,,469,32,850,0,stim,poldrack-single-stim,152,236334,0.0-6.0-92.0,go_nogo_deval,433,,<img class = center src='/static/experiments/go_nogo_deval/images/purple_circle.png'></img>,32,850,test,purple_circle,go1,32,30,0,,,,,,,-1,-1,1400,0,ITI,poldrack-single-stim,153,237736,0.0-6.0-93.0,go_nogo_deval,433,,<div></div>,32,1400,test,,,,,,,,,,,,-1,-1,500,0,fixation,poldrack-single-stim,154,238237,0.0-6.0-94.0,go_nogo_deval,433,,<div class = centerbox><div class = fixation>+</div></div>,none,500,test,,,,,,,,,,,,392,32,850,0,stim,poldrack-single-stim,155,239088,0.0-6.0-95.0,go_nogo_deval,433,,<img class = center src='/static/experiments/go_nogo_deval/images/green_pentagon.png'></img>,32,850,test,green_pentagon,go2,32,31,0,,,,,,,-1,-1,1400,0,ITI,poldrack-single-stim,156,240489,0.0-6.0-96.0,go_nogo_deval,433,,<div></div>,32,1400,test,,,,,,,,,,,,-1,-1,500,0,fixation,poldrack-single-stim,157,240991,0.0-6.0-97.0,go_nogo_deval,433,,<div class = centerbox><div class = fixation>+</div></div>,none,500,test,,,,,,,,,,,,-1,-1,850,0,stim,poldrack-single-stim,158,241842,0.0-6.0-98.0,go_nogo_deval,433,,<img class = center src='/static/experiments/go_nogo_deval/images/blue_triangle.png'></img>,32,850,test,blue_triangle,nogo1,-1,32,0,,,,,,,-1,-1,1400,0,ITI,poldrack-single-stim,159,243244,0.0-6.0-99.0,go_nogo_deval,433,,<div></div>,32,1400,test,,,,,,,,,,,,-1,-1,500,0,fixation,poldrack-single-stim,160,243746,0.0-6.0-100.0,go_nogo_deval,433,,<div class = centerbox><div class = fixation>+</div></div>,none,500,test,,,,,,,,,,,,362,32,850,0,stim,poldrack-single-stim,161,244597,0.0-6.0-101.0,go_nogo_deval,433,,<img class = center src='/static/experiments/go_nogo_deval/images/green_pentagon.png'></img>,32,850,test,green_pentagon,go2,32,33,0,,,,,,,-1,-1,1400,0,ITI,poldrack-single-stim,162,245999,0.0-6.0-102.0,go_nogo_deval,433,,<div></div>,32,1400,test,,,,,,,,,,,,-1,-1,500,0,fixation,poldrack-single-stim,163,246500,0.0-6.0-103.0,go_nogo_deval,433,,<div class = centerbox><div class = fixation>+</div></div>,none,500,test,,,,,,,,,,,,-1,-1,850,0,stim,poldrack-single-stim,164,247352,0.0-6.0-104.0,go_nogo_deval,433,,<img class = center src='/static/experiments/go_nogo_deval/images/red_rhombus.png'></img>,32,850,test,red_rhombus,nogo2,-1,34,0,,,,,,,-1,-1,1400,0,ITI,poldrack-single-stim,165,248753,0.0-6.0-105.0,go_nogo_deval,433,,<div></div>,32,1400,test,,,,,,,,,,,,-1,-1,500,0,fixation,poldrack-single-stim,166,249254,0.0-6.0-106.0,go_nogo_deval,433,,<div class = centerbox><div class = fixation>+</div></div>,none,500,test,,,,,,,,,,,,354,32,850,0,stim,poldrack-single-stim,167,250106,0.0-6.0-107.0,go_nogo_deval,433,,<img class = center src='/static/experiments/go_nogo_deval/images/green_pentagon.png'></img>,32,850,test,green_pentagon,go2,32,35,0,,,,,,,-1,-1,1400,0,ITI,poldrack-single-stim,168,251507,0.0-6.0-108.0,go_nogo_deval,433,,<div></div>,32,1400,test,,,,,,,,,,,,-1,-1,500,0,fixation,poldrack-single-stim,169,252009,0.0-6.0-109.0,go_nogo_deval,433,,<div class = centerbox><div class = fixation>+</div></div>,none,500,test,,,,,,,,,,,,390,32,850,0,stim,poldrack-single-stim,170,252861,0.0-6.0-110.0,go_nogo_deval,433,,<img class = center src='/static/experiments/go_nogo_deval/images/green_pentagon.png'></img>,32,850,test,green_pentagon,go2,32,36,0,,,,,,,-1,-1,1400,0,ITI,poldrack-single-stim,171,254262,0.0-6.0-111.0,go_nogo_deval,433,,<div></div>,32,1400,test,,,,,,,,,,,,-1,-1,500,0,fixation,poldrack-single-stim,172,254764,0.0-6.0-112.0,go_nogo_deval,433,,<div class = centerbox><div class = fixation>+</div></div>,none,500,test,,,,,,,,,,,,437,32,850,0,stim,poldrack-single-stim,173,255615,0.0-6.0-113.0,go_nogo_deval,433,,<img class = center src='/static/experiments/go_nogo_deval/images/purple_circle.png'></img>,32,850,test,purple_circle,go1,32,37,0,,,,,,,-1,-1,1400,0,ITI,poldrack-single-stim,174,257017,0.0-6.0-114.0,go_nogo_deval,433,,<div></div>,32,1400,test,,,,,,,,,,,,-1,-1,500,0,fixation,poldrack-single-stim,175,257518,0.0-6.0-115.0,go_nogo_deval,433,,<div class = centerbox><div class = fixation>+</div></div>,none,500,test,,,,,,,,,,,,338,32,850,0,stim,poldrack-single-stim,176,258370,0.0-6.0-116.0,go_nogo_deval,433,,<img class = center src='/static/experiments/go_nogo_deval/images/green_pentagon.png'></img>,32,850,test,green_pentagon,go2,32,38,0,,,,,,,-1,-1,1400,0,ITI,poldrack-single-stim,177,259771,0.0-6.0-117.0,go_nogo_deval,433,,<div></div>,32,1400,test,,,,,,,,,,,,-1,-1,500,0,fixation,poldrack-single-stim,178,260273,0.0-6.0-118.0,go_nogo_deval,433,,<div class = centerbox><div class = fixation>+</div></div>,none,500,test,,,,,,,,,,,,-1,-1,850,0,stim,poldrack-single-stim,179,261125,0.0-6.0-119.0,go_nogo_deval,433,,<img class = center src='/static/experiments/go_nogo_deval/images/blue_triangle.png'></img>,32,850,test,blue_triangle,nogo1,-1,39,0,,,,,,,-1,-1,1400,0,ITI,poldrack-single-stim,180,262526,0.0-6.0-120.0,go_nogo_deval,433,,<div></div>,32,1400,test,,,,,,,,,,,,-1,-1,500,0,fixation,poldrack-single-stim,181,263027,0.0-6.0-121.0,go_nogo_deval,433,,<div class = centerbox><div class = fixation>+</div></div>,none,500,test,,,,,,,,,,,,-1,-1,850,0,stim,poldrack-single-stim,182,263879,0.0-6.0-122.0,go_nogo_deval,433,,<img class = center src='/static/experiments/go_nogo_deval/images/blue_triangle.png'></img>,32,850,test,blue_triangle,nogo1,-1,40,0,,,,,,,-1,-1,1400,0,ITI,poldrack-single-stim,183,265281,0.0-6.0-123.0,go_nogo_deval,433,,<div></div>,32,1400,test,,,,,,,,,,,,-1,-1,500,0,fixation,poldrack-single-stim,184,265783,0.0-6.0-124.0,go_nogo_deval,433,,<div class = centerbox><div class = fixation>+</div></div>,none,500,test,,,,,,,,,,,,364,32,850,0,stim,poldrack-single-stim,185,266635,0.0-6.0-125.0,go_nogo_deval,433,,<img class = center src='/static/experiments/go_nogo_deval/images/purple_circle.png'></img>,32,850,test,purple_circle,go1,32,41,0,,,,,,,-1,-1,1400,0,ITI,poldrack-single-stim,186,268036,0.0-6.0-126.0,go_nogo_deval,433,,<div></div>,32,1400,test,,,,,,,,,,,,-1,-1,500,0,fixation,poldrack-single-stim,187,268538,0.0-6.0-127.0,go_nogo_deval,433,,<div class = centerbox><div class = fixation>+</div></div>,none,500,test,,,,,,,,,,,,-1,-1,850,0,stim,poldrack-single-stim,188,269389,0.0-6.0-128.0,go_nogo_deval,433,,<img class = center src='/static/experiments/go_nogo_deval/images/blue_triangle.png'></img>,32,850,test,blue_triangle,nogo1,-1,42,0,,,,,,,-1,-1,1400,0,ITI,poldrack-single-stim,189,270791,0.0-6.0-129.0,go_nogo_deval,433,,<div></div>,32,1400,test,,,,,,,,,,,,-1,-1,500,0,fixation,poldrack-single-stim,190,271293,0.0-6.0-130.0,go_nogo_deval,433,,<div class = centerbox><div class = fixation>+</div></div>,none,500,test,,,,,,,,,,,,-1,-1,850,0,stim,poldrack-single-stim,191,272145,0.0-6.0-131.0,go_nogo_deval,433,,<img class = center src='/static/experiments/go_nogo_deval/images/red_rhombus.png'></img>,32,850,test,red_rhombus,nogo2,-1,43,0,,,,,,,-1,-1,1400,0,ITI,poldrack-single-stim,192,273546,0.0-6.0-132.0,go_nogo_deval,433,,<div></div>,32,1400,test,,,,,,,,,,,,-1,-1,500,0,fixation,poldrack-single-stim,193,274047,0.0-6.0-133.0,go_nogo_deval,433,,<div class = centerbox><div class = fixation>+</div></div>,none,500,test,,,,,,,,,,,,-1,-1,850,0,stim,poldrack-single-stim,194,274898,0.0-6.0-134.0,go_nogo_deval,433,,<img class = center src='/static/experiments/go_nogo_deval/images/red_rhombus.png'></img>,32,850,test,red_rhombus,nogo2,-1,44,0,,,,,,,-1,-1,1400,0,ITI,poldrack-single-stim,195,276300,0.0-6.0-135.0,go_nogo_deval,433,,<div></div>,32,1400,test,,,,,,,,,,,,-1,-1,500,0,fixation,poldrack-single-stim,196,276801,0.0-6.0-136.0,go_nogo_deval,433,,<div class = centerbox><div class = fixation>+</div></div>,none,500,test,,,,,,,,,,,,-1,-1,850,0,stim,poldrack-single-stim,197,277653,0.0-6.0-137.0,go_nogo_deval,433,,<img class = center src='/static/experiments/go_nogo_deval/images/red_rhombus.png'></img>,32,850,test,red_rhombus,nogo2,-1,45,0,,,,,,,-1,-1,1400,0,ITI,poldrack-single-stim,198,279054,0.0-6.0-138.0,go_nogo_deval,433,,<div></div>,32,1400,test,,,,,,,,,,,,-1,-1,500,0,fixation,poldrack-single-stim,199,279556,0.0-6.0-139.0,go_nogo_deval,433,,<div class = centerbox><div class = fixation>+</div></div>,none,500,test,,,,,,,,,,,,-1,-1,850,0,stim,poldrack-single-stim,200,280407,0.0-6.0-140.0,go_nogo_deval,433,,<img class = center src='/static/experiments/go_nogo_deval/images/blue_triangle.png'></img>,32,850,test,blue_triangle,nogo1,-1,46,0,,,,,,,-1,-1,1400,0,ITI,poldrack-single-stim,201,281808,0.0-6.0-141.0,go_nogo_deval,433,,<div></div>,32,1400,test,,,,,,,,,,,,-1,-1,500,0,fixation,poldrack-single-stim,202,282310,0.0-6.0-142.0,go_nogo_deval,433,,<div class = centerbox><div class = fixation>+</div></div>,none,500,test,,,,,,,,,,,,-1,-1,850,0,stim,poldrack-single-stim,203,283162,0.0-6.0-143.0,go_nogo_deval,433,,<img class = center src='/static/experiments/go_nogo_deval/images/blue_triangle.png'></img>,32,850,test,blue_triangle,nogo1,-1,47,0,,,,,,,-1,-1,1400,0,ITI,poldrack-single-stim,204,284563,0.0-6.0-144.0,go_nogo_deval,433,,<div></div>,32,1400,test,,,,,,,,,,,,32893,13,32893,0,practice-no-stop-feedback,poldrack-single-stim,205,317459,0.0-6.1-0.1,go_nogo_deval,433,,<div class = centerbox><p class = block-text><br>Please take this time to read your feedback and to take a short break! Press enter to continue</p><p class = block-text><strong>Average reaction time:  391 ms. Accuracy: 100%</strong></p></div>,13,32893,,,,,,,,,,,,,-1,-1,500,0,fixation,poldrack-single-stim,206,317961,0.0-6.1-1.1,go_nogo_deval,433,,<div class = centerbox><div class = fixation>+</div></div>,none,500,test,,,,,,,,,,,,-1,-1,850,0,stim,poldrack-single-stim,207,318813,0.0-6.1-2.1,go_nogo_deval,433,,<img class = center src='/static/experiments/go_nogo_deval/images/purple_circle.png'></img>,32,850,test,purple_circle,go1,32,0,1,,,,,,,108,32,1400,0,ITI,poldrack-single-stim,208,320215,0.0-6.1-3.1,go_nogo_deval,433,,<div></div>,32,1400,test,,,,,,,,,,,,-1,-1,500,0,fixation,poldrack-single-stim,209,320717,0.0-6.1-4.1,go_nogo_deval,433,,<div class = centerbox><div class = fixation>+</div></div>,none,500,test,,,,,,,,,,,,589,32,850,0,stim,poldrack-single-stim,210,321568,0.0-6.1-5.1,go_nogo_deval,433,,<img class = center src='/static/experiments/go_nogo_deval/images/purple_circle.png'></img>,32,850,test,purple_circle,go1,32,1,1,,,,,,,-1,-1,1400,0,ITI,poldrack-single-stim,211,322970,0.0-6.1-6.1,go_nogo_deval,433,,<div></div>,32,1400,test,,,,,,,,,,,,-1,-1,500,0,fixation,poldrack-single-stim,212,323470,0.0-6.1-7.1,go_nogo_deval,433,,<div class = centerbox><div class = fixation>+</div></div>,none,500,test,,,,,,,,,,,,400,32,850,0,stim,poldrack-single-stim,213,324322,0.0-6.1-8.1,go_nogo_deval,433,,<img class = center src='/static/experiments/go_nogo_deval/images/purple_circle.png'></img>,32,850,test,purple_circle,go1,32,2,1,,,,,,,-1,-1,1400,0,ITI,poldrack-single-stim,214,325724,0.0-6.1-9.1,go_nogo_deval,433,,<div></div>,32,1400,test,,,,,,,,,,,,-1,-1,500,0,fixation,poldrack-single-stim,215,326226,0.0-6.1-10.1,go_nogo_deval,433,,<div class = centerbox><div class = fixation>+</div></div>,none,500,test,,,,,,,,,,,,-1,-1,850,0,stim,poldrack-single-stim,216,327077,0.0-6.1-11.1,go_nogo_deval,433,,<img class = center src='/static/experiments/go_nogo_deval/images/blue_triangle.png'></img>,32,850,test,blue_triangle,nogo1,-1,3,1,,,,,,,-1,-1,1400,0,ITI,poldrack-single-stim,217,328479,0.0-6.1-12.1,go_nogo_deval,433,,<div></div>,32,1400,test,,,,,,,,,,,,-1,-1,500,0,fixation,poldrack-single-stim,218,328981,0.0-6.1-13.1,go_nogo_deval,433,,<div class = centerbox><div class = fixation>+</div></div>,none,500,test,,,,,,,,,,,,-1,-1,850,0,stim,poldrack-single-stim,219,329832,0.0-6.1-14.1,go_nogo_deval,433,,<img class = center src='/static/experiments/go_nogo_deval/images/red_rhombus.png'></img>,32,850,test,red_rhombus,nogo2,-1,4,1,,,,,,,-1,-1,1400,0,ITI,poldrack-single-stim,220,331234,0.0-6.1-15.1,go_nogo_deval,433,,<div></div>,32,1400,test,,,,,,,,,,,,-1,-1,500,0,fixation,poldrack-single-stim,221,331736,0.0-6.1-16.1,go_nogo_deval,433,,<div class = centerbox><div class = fixation>+</div></div>,none,500,test,,,,,,,,,,,,314,32,850,0,stim,poldrack-single-stim,222,332588,0.0-6.1-17.1,go_nogo_deval,433,,<img class = center src='/static/experiments/go_nogo_deval/images/green_pentagon.png'></img>,32,850,test,green_pentagon,go2,32,5,1,,,,,,,-1,-1,1400,0,ITI,poldrack-single-stim,223,333989,0.0-6.1-18.1,go_nogo_deval,433,,<div></div>,32,1400,test,,,,,,,,,,,,-1,-1,500,0,fixation,poldrack-single-stim,224,334489,0.0-6.1-19.1,go_nogo_deval,433,,<div class = centerbox><div class = fixation>+</div></div>,none,500,test,,,,,,,,,,,,778,32,850,0,stim,poldrack-single-stim,225,335341,0.0-6.1-20.1,go_nogo_deval,433,,<img class = center src='/static/experiments/go_nogo_deval/images/green_pentagon.png'></img>,32,850,test,green_pentagon,go2,32,6,1,,,,,,,-1,-1,1400,0,ITI,poldrack-single-stim,226,336743,0.0-6.1-21.1,go_nogo_deval,433,,<div></div>,32,1400,test,,,,,,,,,,,,-1,-1,500,0,fixation,poldrack-single-stim,227,337245,0.0-6.1-22.1,go_nogo_deval,433,,<div class = centerbox><div class = fixation>+</div></div>,none,500,test,,,,,,,,,,,,340,32,850,0,stim,poldrack-single-stim,228,338097,0.0-6.1-23.1,go_nogo_deval,433,,<img class = center src='/static/experiments/go_nogo_deval/images/purple_circle.png'></img>,32,850,test,purple_circle,go1,32,7,1,,,,,,,-1,-1,1400,0,ITI,poldrack-single-stim,229,339499,0.0-6.1-24.1,go_nogo_deval,433,,<div></div>,32,1400,test,,,,,,,,,,,,-1,-1,500,0,fixation,poldrack-single-stim,230,340000,0.0-6.1-25.1,go_nogo_deval,433,,<div class = centerbox><div class = fixation>+</div></div>,none,500,test,,,,,,,,,,,,318,32,850,0,stim,poldrack-single-stim,231,340851,0.0-6.1-26.1,go_nogo_deval,433,,<img class = center src='/static/experiments/go_nogo_deval/images/purple_circle.png'></img>,32,850,test,purple_circle,go1,32,8,1,,,,,,,-1,-1,1400,0,ITI,poldrack-single-stim,232,342253,0.0-6.1-27.1,go_nogo_deval,433,,<div></div>,32,1400,test,,,,,,,,,,,,-1,-1,500,0,fixation,poldrack-single-stim,233,342755,0.0-6.1-28.1,go_nogo_deval,433,,<div class = centerbox><div class = fixation>+</div></div>,none,500,test,,,,,,,,,,,,332,32,850,0,stim,poldrack-single-stim,234,343607,0.0-6.1-29.1,go_nogo_deval,433,,<img class = center src='/static/experiments/go_nogo_deval/images/green_pentagon.png'></img>,32,850,test,green_pentagon,go2,32,9,1,,,,,,,-1,-1,1400,0,ITI,poldrack-single-stim,235,345008,0.0-6.1-30.1,go_nogo_deval,433,,<div></div>,32,1400,test,,,,,,,,,,,,-1,-1,500,0,fixation,poldrack-single-stim,236,345509,0.0-6.1-31.1,go_nogo_deval,433,,<div class = centerbox><div class = fixation>+</div></div>,none,500,test,,,,,,,,,,,,321,32,850,0,stim,poldrack-single-stim,237,346360,0.0-6.1-32.1,go_nogo_deval,433,,<img class = center src='/static/experiments/go_nogo_deval/images/green_pentagon.png'></img>,32,850,test,green_pentagon,go2,32,10,1,,,,,,,-1,-1,1400,0,ITI,poldrack-single-stim,238,347762,0.0-6.1-33.1,go_nogo_deval,433,,<div></div>,32,1400,test,,,,,,,,,,,,-1,-1,500,0,fixation,poldrack-single-stim,239,348264,0.0-6.1-34.1,go_nogo_deval,433,,<div class = centerbox><div class = fixation>+</div></div>,none,500,test,,,,,,,,,,,,-1,-1,850,0,stim,poldrack-single-stim,240,349116,0.0-6.1-35.1,go_nogo_deval,433,,<img class = center src='/static/experiments/go_nogo_deval/images/blue_triangle.png'></img>,32,850,test,blue_triangle,nogo1,-1,11,1,,,,,,,-1,-1,1400,0,ITI,poldrack-single-stim,241,350518,0.0-6.1-36.1,go_nogo_deval,433,,<div></div>,32,1400,test,,,,,,,,,,,,-1,-1,500,0,fixation,poldrack-single-stim,242,351020,0.0-6.1-37.1,go_nogo_deval,433,,<div class = centerbox><div class = fixation>+</div></div>,none,500,test,,,,,,,,,,,,493,32,850,0,stim,poldrack-single-stim,243,351872,0.0-6.1-38.1,go_nogo_deval,433,,<img class = center src='/static/experiments/go_nogo_deval/images/green_pentagon.png'></img>,32,850,test,green_pentagon,go2,32,12,1,,,,,,,-1,-1,1400,0,ITI,poldrack-single-stim,244,353274,0.0-6.1-39.1,go_nogo_deval,433,,<div></div>,32,1400,test,,,,,,,,,,,,-1,-1,500,0,fixation,poldrack-single-stim,245,353775,0.0-6.1-40.1,go_nogo_deval,433,,<div class = centerbox><div class = fixation>+</div></div>,none,500,test,,,,,,,,,,,,336,32,850,0,stim,poldrack-single-stim,246,354626,0.0-6.1-41.1,go_nogo_deval,433,,<img class = center src='/static/experiments/go_nogo_deval/images/red_rhombus.png'></img>,32,850,test,red_rhombus,nogo2,-1,13,1,,,,,,,-1,-1,1400,0,ITI,poldrack-single-stim,247,356028,0.0-6.1-42.1,go_nogo_deval,433,,<div></div>,32,1400,test,,,,,,,,,,,,-1,-1,500,0,fixation,poldrack-single-stim,248,356529,0.0-6.1-43.1,go_nogo_deval,433,,<div class = centerbox><div class = fixation>+</div></div>,none,500,test,,,,,,,,,,,,338,32,850,0,stim,poldrack-single-stim,249,357380,0.0-6.1-44.1,go_nogo_deval,433,,<img class = center src='/static/experiments/go_nogo_deval/images/purple_circle.png'></img>,32,850,test,purple_circle,go1,32,14,1,,,,,,,-1,-1,1400,0,ITI,poldrack-single-stim,250,358782,0.0-6.1-45.1,go_nogo_deval,433,,<div></div>,32,1400,test,,,,,,,,,,,,-1,-1,500,0,fixation,poldrack-single-stim,251,359284,0.0-6.1-46.1,go_nogo_deval,433,,<div class = centerbox><div class = fixation>+</div></div>,none,500,test,,,,,,,,,,,,-1,-1,850,0,stim,poldrack-single-stim,252,360135,0.0-6.1-47.1,go_nogo_deval,433,,<img class = center src='/static/experiments/go_nogo_deval/images/blue_triangle.png'></img>,32,850,test,blue_triangle,nogo1,-1,15,1,,,,,,,-1,-1,1400,0,ITI,poldrack-single-stim,253,361537,0.0-6.1-48.1,go_nogo_deval,433,,<div></div>,32,1400,test,,,,,,,,,,,,-1,-1,500,0,fixation,poldrack-single-stim,254,362038,0.0-6.1-49.1,go_nogo_deval,433,,<div class = centerbox><div class = fixation>+</div></div>,none,500,test,,,,,,,,,,,,-1,-1,850,0,stim,poldrack-single-stim,255,362890,0.0-6.1-50.1,go_nogo_deval,433,,<img class = center src='/static/experiments/go_nogo_deval/images/red_rhombus.png'></img>,32,850,test,red_rhombus,nogo2,-1,16,1,,,,,,,-1,-1,1400,0,ITI,poldrack-single-stim,256,364292,0.0-6.1-51.1,go_nogo_deval,433,,<div></div>,32,1400,test,,,,,,,,,,,,-1,-1,500,0,fixation,poldrack-single-stim,257,364793,0.0-6.1-52.1,go_nogo_deval,433,,<div class = centerbox><div class = fixation>+</div></div>,none,500,test,,,,,,,,,,,,-1,-1,850,0,stim,poldrack-single-stim,258,365645,0.0-6.1-53.1,go_nogo_deval,433,,<img class = center src='/static/experiments/go_nogo_deval/images/red_rhombus.png'></img>,32,850,test,red_rhombus,nogo2,-1,17,1,,,,,,,-1,-1,1400,0,ITI,poldrack-single-stim,259,367046,0.0-6.1-54.1,go_nogo_deval,433,,<div></div>,32,1400,test,,,,,,,,,,,,-1,-1,500,0,fixation,poldrack-single-stim,260,367547,0.0-6.1-55.1,go_nogo_deval,433,,<div class = centerbox><div class = fixation>+</div></div>,none,500,test,,,,,,,,,,,,446,32,850,0,stim,poldrack-single-stim,261,368399,0.0-6.1-56.1,go_nogo_deval,433,,<img class = center src='/static/experiments/go_nogo_deval/images/green_pentagon.png'></img>,32,850,test,green_pentagon,go2,32,18,1,,,,,,,-1,-1,1400,0,ITI,poldrack-single-stim,262,369801,0.0-6.1-57.1,go_nogo_deval,433,,<div></div>,32,1400,test,,,,,,,,,,,,-1,-1,500,0,fixation,poldrack-single-stim,263,370303,0.0-6.1-58.1,go_nogo_deval,433,,<div class = centerbox><div class = fixation>+</div></div>,none,500,test,,,,,,,,,,,,470,32,850,0,stim,poldrack-single-stim,264,371155,0.0-6.1-59.1,go_nogo_deval,433,,<img class = center src='/static/experiments/go_nogo_deval/images/purple_circle.png'></img>,32,850,test,purple_circle,go1,32,19,1,,,,,,,-1,-1,1400,0,ITI,poldrack-single-stim,265,372557,0.0-6.1-60.1,go_nogo_deval,433,,<div></div>,32,1400,test,,,,,,,,,,,,-1,-1,500,0,fixation,poldrack-single-stim,266,373058,0.0-6.1-61.1,go_nogo_deval,433,,<div class = centerbox><div class = fixation>+</div></div>,none,500,test,,,,,,,,,,,,404,32,850,0,stim,poldrack-single-stim,267,373909,0.0-6.1-62.1,go_nogo_deval,433,,<img class = center src='/static/experiments/go_nogo_deval/images/purple_circle.png'></img>,32,850,test,purple_circle,go1,32,20,1,,,,,,,-1,-1,1400,0,ITI,poldrack-single-stim,268,375311,0.0-6.1-63.1,go_nogo_deval,433,,<div></div>,32,1400,test,,,,,,,,,,,,-1,-1,500,0,fixation,poldrack-single-stim,269,375813,0.0-6.1-64.1,go_nogo_deval,433,,<div class = centerbox><div class = fixation>+</div></div>,none,500,test,,,,,,,,,,,,439,32,850,0,stim,poldrack-single-stim,270,376665,0.0-6.1-65.1,go_nogo_deval,433,,<img class = center src='/static/experiments/go_nogo_deval/images/green_pentagon.png'></img>,32,850,test,green_pentagon,go2,32,21,1,,,,,,,-1,-1,1400,0,ITI,poldrack-single-stim,271,378066,0.0-6.1-66.1,go_nogo_deval,433,,<div></div>,32,1400,test,,,,,,,,,,,,-1,-1,500,0,fixation,poldrack-single-stim,272,378567,0.0-6.1-67.1,go_nogo_deval,433,,<div class = centerbox><div class = fixation>+</div></div>,none,500,test,,,,,,,,,,,,408,32,850,0,stim,poldrack-single-stim,273,379418,0.0-6.1-68.1,go_nogo_deval,433,,<img class = center src='/static/experiments/go_nogo_deval/images/purple_circle.png'></img>,32,850,test,purple_circle,go1,32,22,1,,,,,,,-1,-1,1400,0,ITI,poldrack-single-stim,274,380820,0.0-6.1-69.1,go_nogo_deval,433,,<div></div>,32,1400,test,,,,,,,,,,,,-1,-1,500,0,fixation,poldrack-single-stim,275,381321,0.0-6.1-70.1,go_nogo_deval,433,,<div class = centerbox><div class = fixation>+</div></div>,none,500,test,,,,,,,,,,,,398,32,850,0,stim,poldrack-single-stim,276,382173,0.0-6.1-71.1,go_nogo_deval,433,,<img class = center src='/static/experiments/go_nogo_deval/images/purple_circle.png'></img>,32,850,test,purple_circle,go1,32,23,1,,,,,,,-1,-1,1400,0,ITI,poldrack-single-stim,277,383574,0.0-6.1-72.1,go_nogo_deval,433,,<div></div>,32,1400,test,,,,,,,,,,,,-1,-1,500,0,fixation,poldrack-single-stim,278,384076,0.0-6.1-73.1,go_nogo_deval,433,,<div class = centerbox><div class = fixation>+</div></div>,none,500,test,,,,,,,,,,,,377,32,850,0,stim,poldrack-single-stim,279,384927,0.0-6.1-74.1,go_nogo_deval,433,,<img class = center src='/static/experiments/go_nogo_deval/images/green_pentagon.png'></img>,32,850,test,green_pentagon,go2,32,24,1,,,,,,,-1,-1,1400,0,ITI,poldrack-single-stim,280,386329,0.0-6.1-75.1,go_nogo_deval,433,,<div></div>,32,1400,test,,,,,,,,,,,,-1,-1,500,0,fixation,poldrack-single-stim,281,386831,0.0-6.1-76.1,go_nogo_deval,433,,<div class = centerbox><div class = fixation>+</div></div>,none,500,test,,,,,,,,,,,,333,32,850,0,stim,poldrack-single-stim,282,387682,0.0-6.1-77.1,go_nogo_deval,433,,<img class = center src='/static/experiments/go_nogo_deval/images/green_pentagon.png'></img>,32,850,test,green_pentagon,go2,32,25,1,,,,,,,-1,-1,1400,0,ITI,poldrack-single-stim,283,389083,0.0-6.1-78.1,go_nogo_deval,433,,<div></div>,32,1400,test,,,,,,,,,,,,-1,-1,500,0,fixation,poldrack-single-stim,284,389584,0.0-6.1-79.1,go_nogo_deval,433,,<div class = centerbox><div class = fixation>+</div></div>,none,500,test,,,,,,,,,,,,415,32,850,0,stim,poldrack-single-stim,285,390435,0.0-6.1-80.1,go_nogo_deval,433,,<img class = center src='/static/experiments/go_nogo_deval/images/green_pentagon.png'></img>,32,850,test,green_pentagon,go2,32,26,1,,,,,,,-1,-1,1400,0,ITI,poldrack-single-stim,286,391837,0.0-6.1-81.1,go_nogo_deval,433,,<div></div>,32,1400,test,,,,,,,,,,,,-1,-1,500,0,fixation,poldrack-single-stim,287,392339,0.0-6.1-82.1,go_nogo_deval,433,,<div class = centerbox><div class = fixation>+</div></div>,none,500,test,,,,,,,,,,,,-1,-1,850,0,stim,poldrack-single-stim,288,393191,0.0-6.1-83.1,go_nogo_deval,433,,<img class = center src='/static/experiments/go_nogo_deval/images/red_rhombus.png'></img>,32,850,test,red_rhombus,nogo2,-1,27,1,,,,,,,-1,-1,1400,0,ITI,poldrack-single-stim,289,394592,0.0-6.1-84.1,go_nogo_deval,433,,<div></div>,32,1400,test,,,,,,,,,,,,-1,-1,500,0,fixation,poldrack-single-stim,290,395093,0.0-6.1-85.1,go_nogo_deval,433,,<div class = centerbox><div class = fixation>+</div></div>,none,500,test,,,,,,,,,,,,452,32,850,0,stim,poldrack-single-stim,291,395945,0.0-6.1-86.1,go_nogo_deval,433,,<img class = center src='/static/experiments/go_nogo_deval/images/blue_triangle.png'></img>,32,850,test,blue_triangle,nogo1,-1,28,1,,,,,,,-1,-1,1400,0,ITI,poldrack-single-stim,292,397347,0.0-6.1-87.1,go_nogo_deval,433,,<div></div>,32,1400,test,,,,,,,,,,,,-1,-1,500,0,fixation,poldrack-single-stim,293,397848,0.0-6.1-88.1,go_nogo_deval,433,,<div class = centerbox><div class = fixation>+</div></div>,none,500,test,,,,,,,,,,,,398,32,850,0,stim,poldrack-single-stim,294,398700,0.0-6.1-89.1,go_nogo_deval,433,,<img class = center src='/static/experiments/go_nogo_deval/images/purple_circle.png'></img>,32,850,test,purple_circle,go1,32,29,1,,,,,,,-1,-1,1400,0,ITI,poldrack-single-stim,295,400102,0.0-6.1-90.1,go_nogo_deval,433,,<div></div>,32,1400,test,,,,,,,,,,,,-1,-1,500,0,fixation,poldrack-single-stim,296,400603,0.0-6.1-91.1,go_nogo_deval,433,,<div class = centerbox><div class = fixation>+</div></div>,none,500,test,,,,,,,,,,,,421,32,850,0,stim,poldrack-single-stim,297,401455,0.0-6.1-92.1,go_nogo_deval,433,,<img class = center src='/static/experiments/go_nogo_deval/images/purple_circle.png'></img>,32,850,test,purple_circle,go1,32,30,1,,,,,,,-1,-1,1400,0,ITI,poldrack-single-stim,298,402857,0.0-6.1-93.1,go_nogo_deval,433,,<div></div>,32,1400,test,,,,,,,,,,,,-1,-1,500,0,fixation,poldrack-single-stim,299,403359,0.0-6.1-94.1,go_nogo_deval,433,,<div class = centerbox><div class = fixation>+</div></div>,none,500,test,,,,,,,,,,,,410,32,850,0,stim,poldrack-single-stim,300,404210,0.0-6.1-95.1,go_nogo_deval,433,,<img class = center src='/static/experiments/go_nogo_deval/images/green_pentagon.png'></img>,32,850,test,green_pentagon,go2,32,31,1,,,,,,,-1,-1,1400,0,ITI,poldrack-single-stim,301,405612,0.0-6.1-96.1,go_nogo_deval,433,,<div></div>,32,1400,test,,,,,,,,,,,,-1,-1,500,0,fixation,poldrack-single-stim,302,406113,0.0-6.1-97.1,go_nogo_deval,433,,<div class = centerbox><div class = fixation>+</div></div>,none,500,test,,,,,,,,,,,,-1,-1,850,0,stim,poldrack-single-stim,303,406965,0.0-6.1-98.1,go_nogo_deval,433,,<img class = center src='/static/experiments/go_nogo_deval/images/red_rhombus.png'></img>,32,850,test,red_rhombus,nogo2,-1,32,1,,,,,,,-1,-1,1400,0,ITI,poldrack-single-stim,304,408366,0.0-6.1-99.1,go_nogo_deval,433,,<div></div>,32,1400,test,,,,,,,,,,,,-1,-1,500,0,fixation,poldrack-single-stim,305,408868,0.0-6.1-100.1,go_nogo_deval,433,,<div class = centerbox><div class = fixation>+</div></div>,none,500,test,,,,,,,,,,,,-1,-1,850,0,stim,poldrack-single-stim,306,409719,0.0-6.1-101.1,go_nogo_deval,433,,<img class = center src='/static/experiments/go_nogo_deval/images/blue_triangle.png'></img>,32,850,test,blue_triangle,nogo1,-1,33,1,,,,,,,-1,-1,1400,0,ITI,poldrack-single-stim,307,411121,0.0-6.1-102.1,go_nogo_deval,433,,<div></div>,32,1400,test,,,,,,,,,,,,-1,-1,500,0,fixation,poldrack-single-stim,308,411623,0.0-6.1-103.1,go_nogo_deval,433,,<div class = centerbox><div class = fixation>+</div></div>,none,500,test,,,,,,,,,,,,382,32,850,0,stim,poldrack-single-stim,309,412474,0.0-6.1-104.1,go_nogo_deval,433,,<img class = center src='/static/experiments/go_nogo_deval/images/green_pentagon.png'></img>,32,850,test,green_pentagon,go2,32,34,1,,,,,,,-1,-1,1400,0,ITI,poldrack-single-stim,310,413875,0.0-6.1-105.1,go_nogo_deval,433,,<div></div>,32,1400,test,,,,,,,,,,,,-1,-1,500,0,fixation,poldrack-single-stim,311,414376,0.0-6.1-106.1,go_nogo_deval,433,,<div class = centerbox><div class = fixation>+</div></div>,none,500,test,,,,,,,,,,,,-1,-1,850,0,stim,poldrack-single-stim,312,415228,0.0-6.1-107.1,go_nogo_deval,433,,<img class = center src='/static/experiments/go_nogo_deval/images/red_rhombus.png'></img>,32,850,test,red_rhombus,nogo2,-1,35,1,,,,,,,-1,-1,1400,0,ITI,poldrack-single-stim,313,416629,0.0-6.1-108.1,go_nogo_deval,433,,<div></div>,32,1400,test,,,,,,,,,,,,-1,-1,500,0,fixation,poldrack-single-stim,314,417130,0.0-6.1-109.1,go_nogo_deval,433,,<div class = centerbox><div class = fixation>+</div></div>,none,500,test,,,,,,,,,,,,442,32,850,0,stim,poldrack-single-stim,315,417982,0.0-6.1-110.1,go_nogo_deval,433,,<img class = center src='/static/experiments/go_nogo_deval/images/purple_circle.png'></img>,32,850,test,purple_circle,go1,32,36,1,,,,,,,-1,-1,1400,0,ITI,poldrack-single-stim,316,419384,0.0-6.1-111.1,go_nogo_deval,433,,<div></div>,32,1400,test,,,,,,,,,,,,-1,-1,500,0,fixation,poldrack-single-stim,317,419886,0.0-6.1-112.1,go_nogo_deval,433,,<div class = centerbox><div class = fixation>+</div></div>,none,500,test,,,,,,,,,,,,409,32,850,0,stim,poldrack-single-stim,318,420736,0.0-6.1-113.1,go_nogo_deval,433,,<img class = center src='/static/experiments/go_nogo_deval/images/green_pentagon.png'></img>,32,850,test,green_pentagon,go2,32,37,1,,,,,,,-1,-1,1400,0,ITI,poldrack-single-stim,319,422138,0.0-6.1-114.1,go_nogo_deval,433,,<div></div>,32,1400,test,,,,,,,,,,,,-1,-1,500,0,fixation,poldrack-single-stim,320,422640,0.0-6.1-115.1,go_nogo_deval,433,,<div class = centerbox><div class = fixation>+</div></div>,none,500,test,,,,,,,,,,,,-1,-1,850,0,stim,poldrack-single-stim,321,423492,0.0-6.1-116.1,go_nogo_deval,433,,<img class = center src='/static/experiments/go_nogo_deval/images/blue_triangle.png'></img>,32,850,test,blue_triangle,nogo1,-1,38,1,,,,,,,-1,-1,1400,0,ITI,poldrack-single-stim,322,424893,0.0-6.1-117.1,go_nogo_deval,433,,<div></div>,32,1400,test,,,,,,,,,,,,-1,-1,500,0,fixation,poldrack-single-stim,323,425394,0.0-6.1-118.1,go_nogo_deval,433,,<div class = centerbox><div class = fixation>+</div></div>,none,500,test,,,,,,,,,,,,448,32,850,0,stim,poldrack-single-stim,324,426246,0.0-6.1-119.1,go_nogo_deval,433,,<img class = center src='/static/experiments/go_nogo_deval/images/green_pentagon.png'></img>,32,850,test,green_pentagon,go2,32,39,1,,,,,,,-1,-1,1400,0,ITI,poldrack-single-stim,325,427648,0.0-6.1-120.1,go_nogo_deval,433,,<div></div>,32,1400,test,,,,,,,,,,,,-1,-1,500,0,fixation,poldrack-single-stim,326,428149,0.0-6.1-121.1,go_nogo_deval,433,,<div class = centerbox><div class = fixation>+</div></div>,none,500,test,,,,,,,,,,,,382,32,850,0,stim,poldrack-single-stim,327,429000,0.0-6.1-122.1,go_nogo_deval,433,,<img class = center src='/static/experiments/go_nogo_deval/images/green_pentagon.png'></img>,32,850,test,green_pentagon,go2,32,40,1,,,,,,,-1,-1,1400,0,ITI,poldrack-single-stim,328,430401,0.0-6.1-123.1,go_nogo_deval,433,,<div></div>,32,1400,test,,,,,,,,,,,,-1,-1,500,0,fixation,poldrack-single-stim,329,430903,0.0-6.1-124.1,go_nogo_deval,433,,<div class = centerbox><div class = fixation>+</div></div>,none,500,test,,,,,,,,,,,,384,32,850,0,stim,poldrack-single-stim,330,431755,0.0-6.1-125.1,go_nogo_deval,433,,<img class = center src='/static/experiments/go_nogo_deval/images/purple_circle.png'></img>,32,850,test,purple_circle,go1,32,41,1,,,,,,,-1,-1,1400,0,ITI,poldrack-single-stim,331,433157,0.0-6.1-126.1,go_nogo_deval,433,,<div></div>,32,1400,test,,,,,,,,,,,,-1,-1,500,0,fixation,poldrack-single-stim,332,433658,0.0-6.1-127.1,go_nogo_deval,433,,<div class = centerbox><div class = fixation>+</div></div>,none,500,test,,,,,,,,,,,,-1,-1,850,0,stim,poldrack-single-stim,333,434510,0.0-6.1-128.1,go_nogo_deval,433,,<img class = center src='/static/experiments/go_nogo_deval/images/blue_triangle.png'></img>,32,850,test,blue_triangle,nogo1,-1,42,1,,,,,,,-1,-1,1400,0,ITI,poldrack-single-stim,334,435911,0.0-6.1-129.1,go_nogo_deval,433,,<div></div>,32,1400,test,,,,,,,,,,,,-1,-1,500,0,fixation,poldrack-single-stim,335,436413,0.0-6.1-130.1,go_nogo_deval,433,,<div class = centerbox><div class = fixation>+</div></div>,none,500,test,,,,,,,,,,,,408,32,850,0,stim,poldrack-single-stim,336,437265,0.0-6.1-131.1,go_nogo_deval,433,,<img class = center src='/static/experiments/go_nogo_deval/images/green_pentagon.png'></img>,32,850,test,green_pentagon,go2,32,43,1,,,,,,,-1,-1,1400,0,ITI,poldrack-single-stim,337,438667,0.0-6.1-132.1,go_nogo_deval,433,,<div></div>,32,1400,test,,,,,,,,,,,,-1,-1,500,0,fixation,poldrack-single-stim,338,439167,0.0-6.1-133.1,go_nogo_deval,433,,<div class = centerbox><div class = fixation>+</div></div>,none,500,test,,,,,,,,,,,,478,32,850,0,stim,poldrack-single-stim,339,440018,0.0-6.1-134.1,go_nogo_deval,433,,<img class = center src='/static/experiments/go_nogo_deval/images/purple_circle.png'></img>,32,850,test,purple_circle,go1,32,44,1,,,,,,,-1,-1,1400,0,ITI,poldrack-single-stim,340,441420,0.0-6.1-135.1,go_nogo_deval,433,,<div></div>,32,1400,test,,,,,,,,,,,,-1,-1,500,0,fixation,poldrack-single-stim,341,441921,0.0-6.1-136.1,go_nogo_deval,433,,<div class = centerbox><div class = fixation>+</div></div>,none,500,test,,,,,,,,,,,,390,32,850,0,stim,poldrack-single-stim,342,442773,0.0-6.1-137.1,go_nogo_deval,433,,<img class = center src='/static/experiments/go_nogo_deval/images/purple_circle.png'></img>,32,850,test,purple_circle,go1,32,45,1,,,,,,,-1,-1,1400,0,ITI,poldrack-single-stim,343,444175,0.0-6.1-138.1,go_nogo_deval,433,,<div></div>,32,1400,test,,,,,,,,,,,,-1,-1,500,0,fixation,poldrack-single-stim,344,444677,0.0-6.1-139.1,go_nogo_deval,433,,<div class = centerbox><div class = fixation>+</div></div>,none,500,test,,,,,,,,,,,,-1,-1,850,0,stim,poldrack-single-stim,345,445528,0.0-6.1-140.1,go_nogo_deval,433,,<img class = center src='/static/experiments/go_nogo_deval/images/red_rhombus.png'></img>,32,850,test,red_rhombus,nogo2,-1,46,1,,,,,,,-1,-1,1400,0,ITI,poldrack-single-stim,346,446930,0.0-6.1-141.1,go_nogo_deval,433,,<div></div>,32,1400,test,,,,,,,,,,,,-1,-1,500,0,fixation,poldrack-single-stim,347,447431,0.0-6.1-142.1,go_nogo_deval,433,,<div class = centerbox><div class = fixation>+</div></div>,none,500,test,,,,,,,,,,,,-1,-1,850,0,stim,poldrack-single-stim,348,448283,0.0-6.1-143.1,go_nogo_deval,433,,<img class = center src='/static/experiments/go_nogo_deval/images/blue_triangle.png'></img>,32,850,test,blue_triangle,nogo1,-1,47,1,,,,,,,-1,-1,1400,0,ITI,poldrack-single-stim,349,449683,0.0-6.1-144.1,go_nogo_deval,433,,<div></div>,32,1400,test,,,,,,,,,,,,7251,13,7251,0,practice-no-stop-feedback,poldrack-single-stim,350,456938,0.0-6.2-0.2,go_nogo_deval,433,,"<div class = centerbox><p class = block-text><br>Please take this time to read your feedback and to take a short break! Press enter to continue</p><p class = block-text><strong>Average reaction time:  414 ms. Accuracy: 94%</strong></p><p class = block-text>We have detected a number of trials that <strong>required no response</strong>, where a response was made.  Please <strong>ensure that you do not respond </strong>to shapes that require no response</p></div>",13,7251,,,,,,,,,,,,,-1,-1,500,0,fixation,poldrack-single-stim,351,457439,0.0-6.2-1.2,go_nogo_deval,433,,<div class = centerbox><div class = fixation>+</div></div>,none,500,test,,,,,,,,,,,,420,32,850,0,stim,poldrack-single-stim,352,458291,0.0-6.2-2.2,go_nogo_deval,433,,<img class = center src='/static/experiments/go_nogo_deval/images/purple_circle.png'></img>,32,850,test,purple_circle,go1,32,0,2,,,,,,,-1,-1,1400,0,ITI,poldrack-single-stim,353,459692,0.0-6.2-3.2,go_nogo_deval,433,,<div></div>,32,1400,test,,,,,,,,,,,,-1,-1,500,0,fixation,poldrack-single-stim,354,460193,0.0-6.2-4.2,go_nogo_deval,433,,<div class = centerbox><div class = fixation>+</div></div>,none,500,test,,,,,,,,,,,,-1,-1,850,0,stim,poldrack-single-stim,355,461044,0.0-6.2-5.2,go_nogo_deval,433,,<img class = center src='/static/experiments/go_nogo_deval/images/blue_triangle.png'></img>,32,850,test,blue_triangle,nogo1,-1,1,2,,,,,,,-1,-1,1400,0,ITI,poldrack-single-stim,356,462445,0.0-6.2-6.2,go_nogo_deval,433,,<div></div>,32,1400,test,,,,,,,,,,,,-1,-1,500,0,fixation,poldrack-single-stim,357,462947,0.0-6.2-7.2,go_nogo_deval,433,,<div class = centerbox><div class = fixation>+</div></div>,none,500,test,,,,,,,,,,,,425,32,850,0,stim,poldrack-single-stim,358,463799,0.0-6.2-8.2,go_nogo_deval,433,,<img class = center src='/static/experiments/go_nogo_deval/images/green_pentagon.png'></img>,32,850,test,green_pentagon,go2,32,2,2,,,,,,,-1,-1,1400,0,ITI,poldrack-single-stim,359,465200,0.0-6.2-9.2,go_nogo_deval,433,,<div></div>,32,1400,test,,,,,,,,,,,,-1,-1,500,0,fixation,poldrack-single-stim,360,465702,0.0-6.2-10.2,go_nogo_deval,433,,<div class = centerbox><div class = fixation>+</div></div>,none,500,test,,,,,,,,,,,,427,32,850,0,stim,poldrack-single-stim,361,466553,0.0-6.2-11.2,go_nogo_deval,433,,<img class = center src='/static/experiments/go_nogo_deval/images/green_pentagon.png'></img>,32,850,test,green_pentagon,go2,32,3,2,,,,,,,-1,-1,1400,0,ITI,poldrack-single-stim,362,467955,0.0-6.2-12.2,go_nogo_deval,433,,<div></div>,32,1400,test,,,,,,,,,,,,-1,-1,500,0,fixation,poldrack-single-stim,363,468456,0.0-6.2-13.2,go_nogo_deval,433,,<div class = centerbox><div class = fixation>+</div></div>,none,500,test,,,,,,,,,,,,529,32,850,0,stim,poldrack-single-stim,364,469308,0.0-6.2-14.2,go_nogo_deval,433,,<img class = center src='/static/experiments/go_nogo_deval/images/purple_circle.png'></img>,32,850,test,purple_circle,go1,32,4,2,,,,,,,-1,-1,1400,0,ITI,poldrack-single-stim,365,470709,0.0-6.2-15.2,go_nogo_deval,433,,<div></div>,32,1400,test,,,,,,,,,,,,-1,-1,500,0,fixation,poldrack-single-stim,366,471210,0.0-6.2-16.2,go_nogo_deval,433,,<div class = centerbox><div class = fixation>+</div></div>,none,500,test,,,,,,,,,,,,443,32,850,0,stim,poldrack-single-stim,367,472062,0.0-6.2-17.2,go_nogo_deval,433,,<img class = center src='/static/experiments/go_nogo_deval/images/green_pentagon.png'></img>,32,850,test,green_pentagon,go2,32,5,2,,,,,,,-1,-1,1400,0,ITI,poldrack-single-stim,368,473462,0.0-6.2-18.2,go_nogo_deval,433,,<div></div>,32,1400,test,,,,,,,,,,,,-1,-1,500,0,fixation,poldrack-single-stim,369,473964,0.0-6.2-19.2,go_nogo_deval,433,,<div class = centerbox><div class = fixation>+</div></div>,none,500,test,,,,,,,,,,,,-1,-1,850,0,stim,poldrack-single-stim,370,474816,0.0-6.2-20.2,go_nogo_deval,433,,<img class = center src='/static/experiments/go_nogo_deval/images/red_rhombus.png'></img>,32,850,test,red_rhombus,nogo2,-1,6,2,,,,,,,-1,-1,1400,0,ITI,poldrack-single-stim,371,476218,0.0-6.2-21.2,go_nogo_deval,433,,<div></div>,32,1400,test,,,,,,,,,,,,-1,-1,500,0,fixation,poldrack-single-stim,372,476719,0.0-6.2-22.2,go_nogo_deval,433,,<div class = centerbox><div class = fixation>+</div></div>,none,500,test,,,,,,,,,,,,535,32,850,0,stim,poldrack-single-stim,373,477570,0.0-6.2-23.2,go_nogo_deval,433,,<img class = center src='/static/experiments/go_nogo_deval/images/purple_circle.png'></img>,32,850,test,purple_circle,go1,32,7,2,,,,,,,-1,-1,1400,0,ITI,poldrack-single-stim,374,478972,0.0-6.2-24.2,go_nogo_deval,433,,<div></div>,32,1400,test,,,,,,,,,,,,-1,-1,500,0,fixation,poldrack-single-stim,375,479473,0.0-6.2-25.2,go_nogo_deval,433,,<div class = centerbox><div class = fixation>+</div></div>,none,500,test,,,,,,,,,,,,437,32,850,0,stim,poldrack-single-stim,376,480324,0.0-6.2-26.2,go_nogo_deval,433,,<img class = center src='/static/experiments/go_nogo_deval/images/green_pentagon.png'></img>,32,850,test,green_pentagon,go2,32,8,2,,,,,,,-1,-1,1400,0,ITI,poldrack-single-stim,377,481725,0.0-6.2-27.2,go_nogo_deval,433,,<div></div>,32,1400,test,,,,,,,,,,,,-1,-1,500,0,fixation,poldrack-single-stim,378,482226,0.0-6.2-28.2,go_nogo_deval,433,,<div class = centerbox><div class = fixation>+</div></div>,none,500,test,,,,,,,,,,,,-1,-1,850,0,stim,poldrack-single-stim,379,483078,0.0-6.2-29.2,go_nogo_deval,433,,<img class = center src='/static/experiments/go_nogo_deval/images/blue_triangle.png'></img>,32,850,test,blue_triangle,nogo1,-1,9,2,,,,,,,-1,-1,1400,0,ITI,poldrack-single-stim,380,484480,0.0-6.2-30.2,go_nogo_deval,433,,<div></div>,32,1400,test,,,,,,,,,,,,-1,-1,500,0,fixation,poldrack-single-stim,381,484981,0.0-6.2-31.2,go_nogo_deval,433,,<div class = centerbox><div class = fixation>+</div></div>,none,500,test,,,,,,,,,,,,441,32,850,0,stim,poldrack-single-stim,382,485833,0.0-6.2-32.2,go_nogo_deval,433,,<img class = center src='/static/experiments/go_nogo_deval/images/green_pentagon.png'></img>,32,850,test,green_pentagon,go2,32,10,2,,,,,,,-1,-1,1400,0,ITI,poldrack-single-stim,383,487234,0.0-6.2-33.2,go_nogo_deval,433,,<div></div>,32,1400,test,,,,,,,,,,,,-1,-1,500,0,fixation,poldrack-single-stim,384,487735,0.0-6.2-34.2,go_nogo_deval,433,,<div class = centerbox><div class = fixation>+</div></div>,none,500,test,,,,,,,,,,,,-1,-1,850,0,stim,poldrack-single-stim,385,488587,0.0-6.2-35.2,go_nogo_deval,433,,<img class = center src='/static/experiments/go_nogo_deval/images/red_rhombus.png'></img>,32,850,test,red_rhombus,nogo2,-1,11,2,,,,,,,-1,-1,1400,0,ITI,poldrack-single-stim,386,489989,0.0-6.2-36.2,go_nogo_deval,433,,<div></div>,32,1400,test,,,,,,,,,,,,-1,-1,500,0,fixation,poldrack-single-stim,387,490490,0.0-6.2-37.2,go_nogo_deval,433,,<div class = centerbox><div class = fixation>+</div></div>,none,500,test,,,,,,,,,,,,423,32,850,0,stim,poldrack-single-stim,388,491341,0.0-6.2-38.2,go_nogo_deval,433,,<img class = center src='/static/experiments/go_nogo_deval/images/purple_circle.png'></img>,32,850,test,purple_circle,go1,32,12,2,,,,,,,-1,-1,1400,0,ITI,poldrack-single-stim,389,492741,0.0-6.2-39.2,go_nogo_deval,433,,<div></div>,32,1400,test,,,,,,,,,,,,-1,-1,500,0,fixation,poldrack-single-stim,390,493243,0.0-6.2-40.2,go_nogo_deval,433,,<div class = centerbox><div class = fixation>+</div></div>,none,500,test,,,,,,,,,,,,459,32,850,0,stim,poldrack-single-stim,391,494095,0.0-6.2-41.2,go_nogo_deval,433,,<img class = center src='/static/experiments/go_nogo_deval/images/purple_circle.png'></img>,32,850,test,purple_circle,go1,32,13,2,,,,,,,-1,-1,1400,0,ITI,poldrack-single-stim,392,495495,0.0-6.2-42.2,go_nogo_deval,433,,<div></div>,32,1400,test,,,,,,,,,,,,-1,-1,500,0,fixation,poldrack-single-stim,393,495997,0.0-6.2-43.2,go_nogo_deval,433,,<div class = centerbox><div class = fixation>+</div></div>,none,500,test,,,,,,,,,,,,427,32,850,0,stim,poldrack-single-stim,394,496849,0.0-6.2-44.2,go_nogo_deval,433,,<img class = center src='/static/experiments/go_nogo_deval/images/purple_circle.png'></img>,32,850,test,purple_circle,go1,32,14,2,,,,,,,-1,-1,1400,0,ITI,poldrack-single-stim,395,498252,0.0-6.2-45.2,go_nogo_deval,433,,<div></div>,32,1400,test,,,,,,,,,,,,-1,-1,500,0,fixation,poldrack-single-stim,396,498753,0.0-6.2-46.2,go_nogo_deval,433,,<div class = centerbox><div class = fixation>+</div></div>,none,500,test,,,,,,,,,,,,-1,-1,850,0,stim,poldrack-single-stim,397,499605,0.0-6.2-47.2,go_nogo_deval,433,,<img class = center src='/static/experiments/go_nogo_deval/images/blue_triangle.png'></img>,32,850,test,blue_triangle,nogo1,-1,15,2,,,,,,,-1,-1,1400,0,ITI,poldrack-single-stim,398,501006,0.0-6.2-48.2,go_nogo_deval,433,,<div></div>,32,1400,test,,,,,,,,,,,,-1,-1,500,0,fixation,poldrack-single-stim,399,501508,0.0-6.2-49.2,go_nogo_deval,433,,<div class = centerbox><div class = fixation>+</div></div>,none,500,test,,,,,,,,,,,,-1,-1,850,0,stim,poldrack-single-stim,400,502359,0.0-6.2-50.2,go_nogo_deval,433,,<img class = center src='/static/experiments/go_nogo_deval/images/red_rhombus.png'></img>,32,850,test,red_rhombus,nogo2,-1,16,2,,,,,,,-1,-1,1400,0,ITI,poldrack-single-stim,401,503761,0.0-6.2-51.2,go_nogo_deval,433,,<div></div>,32,1400,test,,,,,,,,,,,,-1,-1,500,0,fixation,poldrack-single-stim,402,504263,0.0-6.2-52.2,go_nogo_deval,433,,<div class = centerbox><div class = fixation>+</div></div>,none,500,test,,,,,,,,,,,,-1,-1,850,0,stim,poldrack-single-stim,403,505114,0.0-6.2-53.2,go_nogo_deval,433,,<img class = center src='/static/experiments/go_nogo_deval/images/blue_triangle.png'></img>,32,850,test,blue_triangle,nogo1,-1,17,2,,,,,,,-1,-1,1400,0,ITI,poldrack-single-stim,404,506516,0.0-6.2-54.2,go_nogo_deval,433,,<div></div>,32,1400,test,,,,,,,,,,,,-1,-1,500,0,fixation,poldrack-single-stim,405,507018,0.0-6.2-55.2,go_nogo_deval,433,,<div class = centerbox><div class = fixation>+</div></div>,none,500,test,,,,,,,,,,,,-1,-1,850,0,stim,poldrack-single-stim,406,507869,0.0-6.2-56.2,go_nogo_deval,433,,<img class = center src='/static/experiments/go_nogo_deval/images/red_rhombus.png'></img>,32,850,test,red_rhombus,nogo2,-1,18,2,,,,,,,-1,-1,1400,0,ITI,poldrack-single-stim,407,509270,0.0-6.2-57.2,go_nogo_deval,433,,<div></div>,32,1400,test,,,,,,,,,,,,-1,-1,500,0,fixation,poldrack-single-stim,408,509772,0.0-6.2-58.2,go_nogo_deval,433,,<div class = centerbox><div class = fixation>+</div></div>,none,500,test,,,,,,,,,,,,435,32,850,0,stim,poldrack-single-stim,409,510623,0.0-6.2-59.2,go_nogo_deval,433,,<img class = center src='/static/experiments/go_nogo_deval/images/purple_circle.png'></img>,32,850,test,purple_circle,go1,32,19,2,,,,,,,-1,-1,1400,0,ITI,poldrack-single-stim,410,512024,0.0-6.2-60.2,go_nogo_deval,433,,<div></div>,32,1400,test,,,,,,,,,,,,-1,-1,500,0,fixation,poldrack-single-stim,411,512526,0.0-6.2-61.2,go_nogo_deval,433,,<div class = centerbox><div class = fixation>+</div></div>,none,500,test,,,,,,,,,,,,-1,-1,850,0,stim,poldrack-single-stim,412,513378,0.0-6.2-62.2,go_nogo_deval,433,,<img class = center src='/static/experiments/go_nogo_deval/images/red_rhombus.png'></img>,32,850,test,red_rhombus,nogo2,-1,20,2,,,,,,,-1,-1,1400,0,ITI,poldrack-single-stim,413,514779,0.0-6.2-63.2,go_nogo_deval,433,,<div></div>,32,1400,test,,,,,,,,,,,,-1,-1,500,0,fixation,poldrack-single-stim,414,515280,0.0-6.2-64.2,go_nogo_deval,433,,<div class = centerbox><div class = fixation>+</div></div>,none,500,test,,,,,,,,,,,,-1,-1,850,0,stim,poldrack-single-stim,415,516132,0.0-6.2-65.2,go_nogo_deval,433,,<img class = center src='/static/experiments/go_nogo_deval/images/red_rhombus.png'></img>,32,850,test,red_rhombus,nogo2,-1,21,2,,,,,,,-1,-1,1400,0,ITI,poldrack-single-stim,416,517534,0.0-6.2-66.2,go_nogo_deval,433,,<div></div>,32,1400,test,,,,,,,,,,,,-1,-1,500,0,fixation,poldrack-single-stim,417,518035,0.0-6.2-67.2,go_nogo_deval,433,,<div class = centerbox><div class = fixation>+</div></div>,none,500,test,,,,,,,,,,,,451,32,850,0,stim,poldrack-single-stim,418,518887,0.0-6.2-68.2,go_nogo_deval,433,,<img class = center src='/static/experiments/go_nogo_deval/images/green_pentagon.png'></img>,32,850,test,green_pentagon,go2,32,22,2,,,,,,,-1,-1,1400,0,ITI,poldrack-single-stim,419,520288,0.0-6.2-69.2,go_nogo_deval,433,,<div></div>,32,1400,test,,,,,,,,,,,,-1,-1,500,0,fixation,poldrack-single-stim,420,520789,0.0-6.2-70.2,go_nogo_deval,433,,<div class = centerbox><div class = fixation>+</div></div>,none,500,test,,,,,,,,,,,,432,32,850,0,stim,poldrack-single-stim,421,521640,0.0-6.2-71.2,go_nogo_deval,433,,<img class = center src='/static/experiments/go_nogo_deval/images/purple_circle.png'></img>,32,850,test,purple_circle,go1,32,23,2,,,,,,,-1,-1,1400,0,ITI,poldrack-single-stim,422,523042,0.0-6.2-72.2,go_nogo_deval,433,,<div></div>,32,1400,test,,,,,,,,,,,,-1,-1,500,0,fixation,poldrack-single-stim,423,523544,0.0-6.2-73.2,go_nogo_deval,433,,<div class = centerbox><div class = fixation>+</div></div>,none,500,test,,,,,,,,,,,,-1,-1,850,0,stim,poldrack-single-stim,424,524396,0.0-6.2-74.2,go_nogo_deval,433,,<img class = center src='/static/experiments/go_nogo_deval/images/red_rhombus.png'></img>,32,850,test,red_rhombus,nogo2,-1,24,2,,,,,,,-1,-1,1400,0,ITI,poldrack-single-stim,425,525798,0.0-6.2-75.2,go_nogo_deval,433,,<div></div>,32,1400,test,,,,,,,,,,,,-1,-1,500,0,fixation,poldrack-single-stim,426,526299,0.0-6.2-76.2,go_nogo_deval,433,,<div class = centerbox><div class = fixation>+</div></div>,none,500,test,,,,,,,,,,,,467,32,850,0,stim,poldrack-single-stim,427,527151,0.0-6.2-77.2,go_nogo_deval,433,,<img class = center src='/static/experiments/go_nogo_deval/images/green_pentagon.png'></img>,32,850,test,green_pentagon,go2,32,25,2,,,,,,,-1,-1,1400,0,ITI,poldrack-single-stim,428,528553,0.0-6.2-78.2,go_nogo_deval,433,,<div></div>,32,1400,test,,,,,,,,,,,,-1,-1,500,0,fixation,poldrack-single-stim,429,529054,0.0-6.2-79.2,go_nogo_deval,433,,<div class = centerbox><div class = fixation>+</div></div>,none,500,test,,,,,,,,,,,,-1,-1,850,0,stim,poldrack-single-stim,430,529906,0.0-6.2-80.2,go_nogo_deval,433,,<img class = center src='/static/experiments/go_nogo_deval/images/red_rhombus.png'></img>,32,850,test,red_rhombus,nogo2,-1,26,2,,,,,,,-1,-1,1400,0,ITI,poldrack-single-stim,431,531308,0.0-6.2-81.2,go_nogo_deval,433,,<div></div>,32,1400,test,,,,,,,,,,,,-1,-1,500,0,fixation,poldrack-single-stim,432,531809,0.0-6.2-82.2,go_nogo_deval,433,,<div class = centerbox><div class = fixation>+</div></div>,none,500,test,,,,,,,,,,,,-1,-1,850,0,stim,poldrack-single-stim,433,532661,0.0-6.2-83.2,go_nogo_deval,433,,<img class = center src='/static/experiments/go_nogo_deval/images/blue_triangle.png'></img>,32,850,test,blue_triangle,nogo1,-1,27,2,,,,,,,-1,-1,1400,0,ITI,poldrack-single-stim,434,534062,0.0-6.2-84.2,go_nogo_deval,433,,<div></div>,32,1400,test,,,,,,,,,,,,-1,-1,500,0,fixation,poldrack-single-stim,435,534564,0.0-6.2-85.2,go_nogo_deval,433,,<div class = centerbox><div class = fixation>+</div></div>,none,500,test,,,,,,,,,,,,404,32,850,0,stim,poldrack-single-stim,436,535416,0.0-6.2-86.2,go_nogo_deval,433,,<img class = center src='/static/experiments/go_nogo_deval/images/green_pentagon.png'></img>,32,850,test,green_pentagon,go2,32,28,2,,,,,,,-1,-1,1400,0,ITI,poldrack-single-stim,437,536818,0.0-6.2-87.2,go_nogo_deval,433,,<div></div>,32,1400,test,,,,,,,,,,,,-1,-1,500,0,fixation,poldrack-single-stim,438,537318,0.0-6.2-88.2,go_nogo_deval,433,,<div class = centerbox><div class = fixation>+</div></div>,none,500,test,,,,,,,,,,,,394,32,850,0,stim,poldrack-single-stim,439,538169,0.0-6.2-89.2,go_nogo_deval,433,,<img class = center src='/static/experiments/go_nogo_deval/images/green_pentagon.png'></img>,32,850,test,green_pentagon,go2,32,29,2,,,,,,,-1,-1,1400,0,ITI,poldrack-single-stim,440,539571,0.0-6.2-90.2,go_nogo_deval,433,,<div></div>,32,1400,test,,,,,,,,,,,,-1,-1,500,0,fixation,poldrack-single-stim,441,540072,0.0-6.2-91.2,go_nogo_deval,433,,<div class = centerbox><div class = fixation>+</div></div>,none,500,test,,,,,,,,,,,,430,32,850,0,stim,poldrack-single-stim,442,540925,0.0-6.2-92.2,go_nogo_deval,433,,<img class = center src='/static/experiments/go_nogo_deval/images/purple_circle.png'></img>,32,850,test,purple_circle,go1,32,30,2,,,,,,,-1,-1,1400,0,ITI,poldrack-single-stim,443,542327,0.0-6.2-93.2,go_nogo_deval,433,,<div></div>,32,1400,test,,,,,,,,,,,,-1,-1,500,0,fixation,poldrack-single-stim,444,542827,0.0-6.2-94.2,go_nogo_deval,433,,<div class = centerbox><div class = fixation>+</div></div>,none,500,test,,,,,,,,,,,,386,32,850,0,stim,poldrack-single-stim,445,543679,0.0-6.2-95.2,go_nogo_deval,433,,<img class = center src='/static/experiments/go_nogo_deval/images/green_pentagon.png'></img>,32,850,test,green_pentagon,go2,32,31,2,,,,,,,-1,-1,1400,0,ITI,poldrack-single-stim,446,545081,0.0-6.2-96.2,go_nogo_deval,433,,<div></div>,32,1400,test,,,,,,,,,,,,-1,-1,500,0,fixation,poldrack-single-stim,447,545583,0.0-6.2-97.2,go_nogo_deval,433,,<div class = centerbox><div class = fixation>+</div></div>,none,500,test,,,,,,,,,,,,332,32,850,0,stim,poldrack-single-stim,448,546434,0.0-6.2-98.2,go_nogo_deval,433,,<img class = center src='/static/experiments/go_nogo_deval/images/green_pentagon.png'></img>,32,850,test,green_pentagon,go2,32,32,2,,,,,,,-1,-1,1400,0,ITI,poldrack-single-stim,449,547836,0.0-6.2-99.2,go_nogo_deval,433,,<div></div>,32,1400,test,,,,,,,,,,,,-1,-1,500,0,fixation,poldrack-single-stim,450,548338,0.0-6.2-100.2,go_nogo_deval,433,,<div class = centerbox><div class = fixation>+</div></div>,none,500,test,,,,,,,,,,,,310,32,850,0,stim,poldrack-single-stim,451,549189,0.0-6.2-101.2,go_nogo_deval,433,,<img class = center src='/static/experiments/go_nogo_deval/images/purple_circle.png'></img>,32,850,test,purple_circle,go1,32,33,2,,,,,,,-1,-1,1400,0,ITI,poldrack-single-stim,452,550591,0.0-6.2-102.2,go_nogo_deval,433,,<div></div>,32,1400,test,,,,,,,,,,,,-1,-1,500,0,fixation,poldrack-single-stim,453,551093,0.0-6.2-103.2,go_nogo_deval,433,,<div class = centerbox><div class = fixation>+</div></div>,none,500,test,,,,,,,,,,,,-1,-1,850,0,stim,poldrack-single-stim,454,551945,0.0-6.2-104.2,go_nogo_deval,433,,<img class = center src='/static/experiments/go_nogo_deval/images/blue_triangle.png'></img>,32,850,test,blue_triangle,nogo1,-1,34,2,,,,,,,-1,-1,1400,0,ITI,poldrack-single-stim,455,553345,0.0-6.2-105.2,go_nogo_deval,433,,<div></div>,32,1400,test,,,,,,,,,,,,-1,-1,500,0,fixation,poldrack-single-stim,456,553847,0.0-6.2-106.2,go_nogo_deval,433,,<div class = centerbox><div class = fixation>+</div></div>,none,500,test,,,,,,,,,,,,370,32,850,0,stim,poldrack-single-stim,457,554698,0.0-6.2-107.2,go_nogo_deval,433,,<img class = center src='/static/experiments/go_nogo_deval/images/green_pentagon.png'></img>,32,850,test,green_pentagon,go2,32,35,2,,,,,,,-1,-1,1400,0,ITI,poldrack-single-stim,458,556100,0.0-6.2-108.2,go_nogo_deval,433,,<div></div>,32,1400,test,,,,,,,,,,,,-1,-1,500,0,fixation,poldrack-single-stim,459,556601,0.0-6.2-109.2,go_nogo_deval,433,,<div class = centerbox><div class = fixation>+</div></div>,none,500,test,,,,,,,,,,,,394,32,850,0,stim,poldrack-single-stim,460,557453,0.0-6.2-110.2,go_nogo_deval,433,,<img class = center src='/static/experiments/go_nogo_deval/images/green_pentagon.png'></img>,32,850,test,green_pentagon,go2,32,36,2,,,,,,,-1,-1,1400,0,ITI,poldrack-single-stim,461,558854,0.0-6.2-111.2,go_nogo_deval,433,,<div></div>,32,1400,test,,,,,,,,,,,,-1,-1,500,0,fixation,poldrack-single-stim,462,559356,0.0-6.2-112.2,go_nogo_deval,433,,<div class = centerbox><div class = fixation>+</div></div>,none,500,test,,,,,,,,,,,,350,32,850,0,stim,poldrack-single-stim,463,560208,0.0-6.2-113.2,go_nogo_deval,433,,<img class = center src='/static/experiments/go_nogo_deval/images/green_pentagon.png'></img>,32,850,test,green_pentagon,go2,32,37,2,,,,,,,-1,-1,1400,0,ITI,poldrack-single-stim,464,561610,0.0-6.2-114.2,go_nogo_deval,433,,<div></div>,32,1400,test,,,,,,,,,,,,-1,-1,500,0,fixation,poldrack-single-stim,465,562111,0.0-6.2-115.2,go_nogo_deval,433,,<div class = centerbox><div class = fixation>+</div></div>,none,500,test,,,,,,,,,,,,-1,-1,850,0,stim,poldrack-single-stim,466,562963,0.0-6.2-116.2,go_nogo_deval,433,,<img class = center src='/static/experiments/go_nogo_deval/images/blue_triangle.png'></img>,32,850,test,blue_triangle,nogo1,-1,38,2,,,,,,,-1,-1,1400,0,ITI,poldrack-single-stim,467,564364,0.0-6.2-117.2,go_nogo_deval,433,,<div></div>,32,1400,test,,,,,,,,,,,,-1,-1,500,0,fixation,poldrack-single-stim,468,564866,0.0-6.2-118.2,go_nogo_deval,433,,<div class = centerbox><div class = fixation>+</div></div>,none,500,test,,,,,,,,,,,,466,32,850,0,stim,poldrack-single-stim,469,565718,0.0-6.2-119.2,go_nogo_deval,433,,<img class = center src='/static/experiments/go_nogo_deval/images/green_pentagon.png'></img>,32,850,test,green_pentagon,go2,32,39,2,,,,,,,-1,-1,1400,0,ITI,poldrack-single-stim,470,567120,0.0-6.2-120.2,go_nogo_deval,433,,<div></div>,32,1400,test,,,,,,,,,,,,-1,-1,500,0,fixation,poldrack-single-stim,471,567621,0.0-6.2-121.2,go_nogo_deval,433,,<div class = centerbox><div class = fixation>+</div></div>,none,500,test,,,,,,,,,,,,433,32,850,0,stim,poldrack-single-stim,472,568472,0.0-6.2-122.2,go_nogo_deval,433,,<img class = center src='/static/experiments/go_nogo_deval/images/purple_circle.png'></img>,32,850,test,purple_circle,go1,32,40,2,,,,,,,-1,-1,1400,0,ITI,poldrack-single-stim,473,569874,0.0-6.2-123.2,go_nogo_deval,433,,<div></div>,32,1400,test,,,,,,,,,,,,-1,-1,500,0,fixation,poldrack-single-stim,474,570376,0.0-6.2-124.2,go_nogo_deval,433,,<div class = centerbox><div class = fixation>+</div></div>,none,500,test,,,,,,,,,,,,333,32,850,0,stim,poldrack-single-stim,475,571228,0.0-6.2-125.2,go_nogo_deval,433,,<img class = center src='/static/experiments/go_nogo_deval/images/purple_circle.png'></img>,32,850,test,purple_circle,go1,32,41,2,,,,,,,-1,-1,1400,0,ITI,poldrack-single-stim,476,572629,0.0-6.2-126.2,go_nogo_deval,433,,<div></div>,32,1400,test,,,,,,,,,,,,-1,-1,500,0,fixation,poldrack-single-stim,477,573130,0.0-6.2-127.2,go_nogo_deval,433,,<div class = centerbox><div class = fixation>+</div></div>,none,500,test,,,,,,,,,,,,459,32,850,0,stim,poldrack-single-stim,478,573982,0.0-6.2-128.2,go_nogo_deval,433,,<img class = center src='/static/experiments/go_nogo_deval/images/green_pentagon.png'></img>,32,850,test,green_pentagon,go2,32,42,2,,,,,,,-1,-1,1400,0,ITI,poldrack-single-stim,479,575384,0.0-6.2-129.2,go_nogo_deval,433,,<div></div>,32,1400,test,,,,,,,,,,,,-1,-1,500,0,fixation,poldrack-single-stim,480,575885,0.0-6.2-130.2,go_nogo_deval,433,,<div class = centerbox><div class = fixation>+</div></div>,none,500,test,,,,,,,,,,,,-1,-1,850,0,stim,poldrack-single-stim,481,576737,0.0-6.2-131.2,go_nogo_deval,433,,<img class = center src='/static/experiments/go_nogo_deval/images/blue_triangle.png'></img>,32,850,test,blue_triangle,nogo1,-1,43,2,,,,,,,-1,-1,1400,0,ITI,poldrack-single-stim,482,578139,0.0-6.2-132.2,go_nogo_deval,433,,<div></div>,32,1400,test,,,,,,,,,,,,-1,-1,500,0,fixation,poldrack-single-stim,483,578640,0.0-6.2-133.2,go_nogo_deval,433,,<div class = centerbox><div class = fixation>+</div></div>,none,500,test,,,,,,,,,,,,360,32,850,0,stim,poldrack-single-stim,484,579492,0.0-6.2-134.2,go_nogo_deval,433,,<img class = center src='/static/experiments/go_nogo_deval/images/purple_circle.png'></img>,32,850,test,purple_circle,go1,32,44,2,,,,,,,-1,-1,1400,0,ITI,poldrack-single-stim,485,580894,0.0-6.2-135.2,go_nogo_deval,433,,<div></div>,32,1400,test,,,,,,,,,,,,-1,-1,500,0,fixation,poldrack-single-stim,486,581396,0.0-6.2-136.2,go_nogo_deval,433,,<div class = centerbox><div class = fixation>+</div></div>,none,500,test,,,,,,,,,,,,575,32,850,0,stim,poldrack-single-stim,487,582247,0.0-6.2-137.2,go_nogo_deval,433,,<img class = center src='/static/experiments/go_nogo_deval/images/purple_circle.png'></img>,32,850,test,purple_circle,go1,32,45,2,,,,,,,-1,-1,1400,0,ITI,poldrack-single-stim,488,583649,0.0-6.2-138.2,go_nogo_deval,433,,<div></div>,32,1400,test,,,,,,,,,,,,-1,-1,500,0,fixation,poldrack-single-stim,489,584151,0.0-6.2-139.2,go_nogo_deval,433,,<div class = centerbox><div class = fixation>+</div></div>,none,500,test,,,,,,,,,,,,419,32,850,0,stim,poldrack-single-stim,490,585003,0.0-6.2-140.2,go_nogo_deval,433,,<img class = center src='/static/experiments/go_nogo_deval/images/purple_circle.png'></img>,32,850,test,purple_circle,go1,32,46,2,,,,,,,-1,-1,1400,0,ITI,poldrack-single-stim,491,586403,0.0-6.2-141.2,go_nogo_deval,433,,<div></div>,32,1400,test,,,,,,,,,,,,-1,-1,500,0,fixation,poldrack-single-stim,492,586905,0.0-6.2-142.2,go_nogo_deval,433,,<div class = centerbox><div class = fixation>+</div></div>,none,500,test,,,,,,,,,,,,353,32,850,0,stim,poldrack-single-stim,493,587757,0.0-6.2-143.2,go_nogo_deval,433,,<img class = center src='/static/experiments/go_nogo_deval/images/purple_circle.png'></img>,32,850,test,purple_circle,go1,32,47,2,,,,,,,-1,-1,1400,0,ITI,poldrack-single-stim,494,589159,0.0-6.2-144.2,go_nogo_deval,433,,<div></div>,32,1400,test,,,,,,,,,,,,34152,13,34152,0,practice-no-stop-feedback,poldrack-single-stim,495,623316,0.0-6.3-0.3,go_nogo_deval,433,,<div class = centerbox><p class = block-text><br>Please take this time to read your feedback and to take a short break! Press enter to continue</p><p class = block-text><strong>Average reaction time:  422 ms. Accuracy: 100%</strong></p></div>,13,34152,,,,,,,,,,,,,-1,-1,500,0,fixation,poldrack-single-stim,496,623817,0.0-6.3-1.3,go_nogo_deval,433,,<div class = centerbox><div class = fixation>+</div></div>,none,500,test,,,,,,,,,,,,-1,-1,850,0,stim,poldrack-single-stim,497,624668,0.0-6.3-2.3,go_nogo_deval,433,,<img class = center src='/static/experiments/go_nogo_deval/images/blue_triangle.png'></img>,32,850,test,blue_triangle,nogo1,-1,0,3,,,,,,,-1,-1,1400,0,ITI,poldrack-single-stim,498,626070,0.0-6.3-3.3,go_nogo_deval,433,,<div></div>,32,1400,test,,,,,,,,,,,,-1,-1,500,0,fixation,poldrack-single-stim,499,626572,0.0-6.3-4.3,go_nogo_deval,433,,<div class = centerbox><div class = fixation>+</div></div>,none,500,test,,,,,,,,,,,,411,32,850,0,stim,poldrack-single-stim,500,627423,0.0-6.3-5.3,go_nogo_deval,433,,<img class = center src='/static/experiments/go_nogo_deval/images/green_pentagon.png'></img>,32,850,test,green_pentagon,go2,32,1,3,,,,,,,-1,-1,1400,0,ITI,poldrack-single-stim,501,628824,0.0-6.3-6.3,go_nogo_deval,433,,<div></div>,32,1400,test,,,,,,,,,,,,-1,-1,500,0,fixation,poldrack-single-stim,502,629326,0.0-6.3-7.3,go_nogo_deval,433,,<div class = centerbox><div class = fixation>+</div></div>,none,500,test,,,,,,,,,,,,357,32,850,0,stim,poldrack-single-stim,503,630177,0.0-6.3-8.3,go_nogo_deval,433,,<img class = center src='/static/experiments/go_nogo_deval/images/green_pentagon.png'></img>,32,850,test,green_pentagon,go2,32,2,3,,,,,,,-1,-1,1400,0,ITI,poldrack-single-stim,504,631579,0.0-6.3-9.3,go_nogo_deval,433,,<div></div>,32,1400,test,,,,,,,,,,,,-1,-1,500,0,fixation,poldrack-single-stim,505,632080,0.0-6.3-10.3,go_nogo_deval,433,,<div class = centerbox><div class = fixation>+</div></div>,none,500,test,,,,,,,,,,,,403,32,850,0,stim,poldrack-single-stim,506,632932,0.0-6.3-11.3,go_nogo_deval,433,,<img class = center src='/static/experiments/go_nogo_deval/images/purple_circle.png'></img>,32,850,test,purple_circle,go1,32,3,3,,,,,,,-1,-1,1400,0,ITI,poldrack-single-stim,507,634333,0.0-6.3-12.3,go_nogo_deval,433,,<div></div>,32,1400,test,,,,,,,,,,,,-1,-1,500,0,fixation,poldrack-single-stim,508,634835,0.0-6.3-13.3,go_nogo_deval,433,,<div class = centerbox><div class = fixation>+</div></div>,none,500,test,,,,,,,,,,,,316,32,850,0,stim,poldrack-single-stim,509,635686,0.0-6.3-14.3,go_nogo_deval,433,,<img class = center src='/static/experiments/go_nogo_deval/images/purple_circle.png'></img>,32,850,test,purple_circle,go1,32,4,3,,,,,,,-1,-1,1400,0,ITI,poldrack-single-stim,510,637087,0.0-6.3-15.3,go_nogo_deval,433,,<div></div>,32,1400,test,,,,,,,,,,,,-1,-1,500,0,fixation,poldrack-single-stim,511,637588,0.0-6.3-16.3,go_nogo_deval,433,,<div class = centerbox><div class = fixation>+</div></div>,none,500,test,,,,,,,,,,,,295,32,850,0,stim,poldrack-single-stim,512,638440,0.0-6.3-17.3,go_nogo_deval,433,,<img class = center src='/static/experiments/go_nogo_deval/images/purple_circle.png'></img>,32,850,test,purple_circle,go1,32,5,3,,,,,,,-1,-1,1400,0,ITI,poldrack-single-stim,513,639841,0.0-6.3-18.3,go_nogo_deval,433,,<div></div>,32,1400,test,,,,,,,,,,,,-1,-1,500,0,fixation,poldrack-single-stim,514,640343,0.0-6.3-19.3,go_nogo_deval,433,,<div class = centerbox><div class = fixation>+</div></div>,none,500,test,,,,,,,,,,,,341,32,850,0,stim,poldrack-single-stim,515,641194,0.0-6.3-20.3,go_nogo_deval,433,,<img class = center src='/static/experiments/go_nogo_deval/images/green_pentagon.png'></img>,32,850,test,green_pentagon,go2,32,6,3,,,,,,,-1,-1,1400,0,ITI,poldrack-single-stim,516,642596,0.0-6.3-21.3,go_nogo_deval,433,,<div></div>,32,1400,test,,,,,,,,,,,,-1,-1,500,0,fixation,poldrack-single-stim,517,643098,0.0-6.3-22.3,go_nogo_deval,433,,<div class = centerbox><div class = fixation>+</div></div>,none,500,test,,,,,,,,,,,,355,32,850,0,stim,poldrack-single-stim,518,643950,0.0-6.3-23.3,go_nogo_deval,433,,<img class = center src='/static/experiments/go_nogo_deval/images/purple_circle.png'></img>,32,850,test,purple_circle,go1,32,7,3,,,,,,,-1,-1,1400,0,ITI,poldrack-single-stim,519,645352,0.0-6.3-24.3,go_nogo_deval,433,,<div></div>,32,1400,test,,,,,,,,,,,,-1,-1,500,0,fixation,poldrack-single-stim,520,645852,0.0-6.3-25.3,go_nogo_deval,433,,<div class = centerbox><div class = fixation>+</div></div>,none,500,test,,,,,,,,,,,,334,32,850,0,stim,poldrack-single-stim,521,646704,0.0-6.3-26.3,go_nogo_deval,433,,<img class = center src='/static/experiments/go_nogo_deval/images/purple_circle.png'></img>,32,850,test,purple_circle,go1,32,8,3,,,,,,,-1,-1,1400,0,ITI,poldrack-single-stim,522,648105,0.0-6.3-27.3,go_nogo_deval,433,,<div></div>,32,1400,test,,,,,,,,,,,,-1,-1,500,0,fixation,poldrack-single-stim,523,648606,0.0-6.3-28.3,go_nogo_deval,433,,<div class = centerbox><div class = fixation>+</div></div>,none,500,test,,,,,,,,,,,,-1,-1,850,0,stim,poldrack-single-stim,524,649458,0.0-6.3-29.3,go_nogo_deval,433,,<img class = center src='/static/experiments/go_nogo_deval/images/red_rhombus.png'></img>,32,850,test,red_rhombus,nogo2,-1,9,3,,,,,,,-1,-1,1400,0,ITI,poldrack-single-stim,525,650859,0.0-6.3-30.3,go_nogo_deval,433,,<div></div>,32,1400,test,,,,,,,,,,,,-1,-1,500,0,fixation,poldrack-single-stim,526,651361,0.0-6.3-31.3,go_nogo_deval,433,,<div class = centerbox><div class = fixation>+</div></div>,none,500,test,,,,,,,,,,,,383,32,850,0,stim,poldrack-single-stim,527,652212,0.0-6.3-32.3,go_nogo_deval,433,,<img class = center src='/static/experiments/go_nogo_deval/images/green_pentagon.png'></img>,32,850,test,green_pentagon,go2,32,10,3,,,,,,,-1,-1,1400,0,ITI,poldrack-single-stim,528,653613,0.0-6.3-33.3,go_nogo_deval,433,,<div></div>,32,1400,test,,,,,,,,,,,,-1,-1,500,0,fixation,poldrack-single-stim,529,654115,0.0-6.3-34.3,go_nogo_deval,433,,<div class = centerbox><div class = fixation>+</div></div>,none,500,test,,,,,,,,,,,,-1,-1,850,0,stim,poldrack-single-stim,530,654967,0.0-6.3-35.3,go_nogo_deval,433,,<img class = center src='/static/experiments/go_nogo_deval/images/red_rhombus.png'></img>,32,850,test,red_rhombus,nogo2,-1,11,3,,,,,,,-1,-1,1400,0,ITI,poldrack-single-stim,531,656368,0.0-6.3-36.3,go_nogo_deval,433,,<div></div>,32,1400,test,,,,,,,,,,,,-1,-1,500,0,fixation,poldrack-single-stim,532,656869,0.0-6.3-37.3,go_nogo_deval,433,,<div class = centerbox><div class = fixation>+</div></div>,none,500,test,,,,,,,,,,,,421,32,850,0,stim,poldrack-single-stim,533,657720,0.0-6.3-38.3,go_nogo_deval,433,,<img class = center src='/static/experiments/go_nogo_deval/images/purple_circle.png'></img>,32,850,test,purple_circle,go1,32,12,3,,,,,,,-1,-1,1400,0,ITI,poldrack-single-stim,534,659122,0.0-6.3-39.3,go_nogo_deval,433,,<div></div>,32,1400,test,,,,,,,,,,,,-1,-1,500,0,fixation,poldrack-single-stim,535,659624,0.0-6.3-40.3,go_nogo_deval,433,,<div class = centerbox><div class = fixation>+</div></div>,none,500,test,,,,,,,,,,,,-1,-1,850,0,stim,poldrack-single-stim,536,660476,0.0-6.3-41.3,go_nogo_deval,433,,<img class = center src='/static/experiments/go_nogo_deval/images/blue_triangle.png'></img>,32,850,test,blue_triangle,nogo1,-1,13,3,,,,,,,-1,-1,1400,0,ITI,poldrack-single-stim,537,661876,0.0-6.3-42.3,go_nogo_deval,433,,<div></div>,32,1400,test,,,,,,,,,,,,-1,-1,500,0,fixation,poldrack-single-stim,538,662378,0.0-6.3-43.3,go_nogo_deval,433,,<div class = centerbox><div class = fixation>+</div></div>,none,500,test,,,,,,,,,,,,-1,-1,850,0,stim,poldrack-single-stim,539,663230,0.0-6.3-44.3,go_nogo_deval,433,,<img class = center src='/static/experiments/go_nogo_deval/images/red_rhombus.png'></img>,32,850,test,red_rhombus,nogo2,-1,14,3,,,,,,,-1,-1,1400,0,ITI,poldrack-single-stim,540,664632,0.0-6.3-45.3,go_nogo_deval,433,,<div></div>,32,1400,test,,,,,,,,,,,,-1,-1,500,0,fixation,poldrack-single-stim,541,665133,0.0-6.3-46.3,go_nogo_deval,433,,<div class = centerbox><div class = fixation>+</div></div>,none,500,test,,,,,,,,,,,,392,32,850,0,stim,poldrack-single-stim,542,665985,0.0-6.3-47.3,go_nogo_deval,433,,<img class = center src='/static/experiments/go_nogo_deval/images/green_pentagon.png'></img>,32,850,test,green_pentagon,go2,32,15,3,,,,,,,-1,-1,1400,0,ITI,poldrack-single-stim,543,667387,0.0-6.3-48.3,go_nogo_deval,433,,<div></div>,32,1400,test,,,,,,,,,,,,-1,-1,500,0,fixation,poldrack-single-stim,544,667887,0.0-6.3-49.3,go_nogo_deval,433,,<div class = centerbox><div class = fixation>+</div></div>,none,500,test,,,,,,,,,,,,360,32,850,0,stim,poldrack-single-stim,545,668739,0.0-6.3-50.3,go_nogo_deval,433,,<img class = center src='/static/experiments/go_nogo_deval/images/purple_circle.png'></img>,32,850,test,purple_circle,go1,32,16,3,,,,,,,-1,-1,1400,0,ITI,poldrack-single-stim,546,670141,0.0-6.3-51.3,go_nogo_deval,433,,<div></div>,32,1400,test,,,,,,,,,,,,-1,-1,500,0,fixation,poldrack-single-stim,547,670642,0.0-6.3-52.3,go_nogo_deval,433,,<div class = centerbox><div class = fixation>+</div></div>,none,500,test,,,,,,,,,,,,452,32,850,0,stim,poldrack-single-stim,548,671494,0.0-6.3-53.3,go_nogo_deval,433,,<img class = center src='/static/experiments/go_nogo_deval/images/purple_circle.png'></img>,32,850,test,purple_circle,go1,32,17,3,,,,,,,-1,-1,1400,0,ITI,poldrack-single-stim,549,672895,0.0-6.3-54.3,go_nogo_deval,433,,<div></div>,32,1400,test,,,,,,,,,,,,-1,-1,500,0,fixation,poldrack-single-stim,550,673397,0.0-6.3-55.3,go_nogo_deval,433,,<div class = centerbox><div class = fixation>+</div></div>,none,500,test,,,,,,,,,,,,363,32,850,0,stim,poldrack-single-stim,551,674249,0.0-6.3-56.3,go_nogo_deval,433,,<img class = center src='/static/experiments/go_nogo_deval/images/purple_circle.png'></img>,32,850,test,purple_circle,go1,32,18,3,,,,,,,-1,-1,1400,0,ITI,poldrack-single-stim,552,675651,0.0-6.3-57.3,go_nogo_deval,433,,<div></div>,32,1400,test,,,,,,,,,,,,-1,-1,500,0,fixation,poldrack-single-stim,553,676153,0.0-6.3-58.3,go_nogo_deval,433,,<div class = centerbox><div class = fixation>+</div></div>,none,500,test,,,,,,,,,,,,-1,-1,850,0,stim,poldrack-single-stim,554,677003,0.0-6.3-59.3,go_nogo_deval,433,,<img class = center src='/static/experiments/go_nogo_deval/images/blue_triangle.png'></img>,32,850,test,blue_triangle,nogo1,-1,19,3,,,,,,,-1,-1,1400,0,ITI,poldrack-single-stim,555,678405,0.0-6.3-60.3,go_nogo_deval,433,,<div></div>,32,1400,test,,,,,,,,,,,,-1,-1,500,0,fixation,poldrack-single-stim,556,678907,0.0-6.3-61.3,go_nogo_deval,433,,<div class = centerbox><div class = fixation>+</div></div>,none,500,test,,,,,,,,,,,,288,32,850,0,stim,poldrack-single-stim,557,679759,0.0-6.3-62.3,go_nogo_deval,433,,<img class = center src='/static/experiments/go_nogo_deval/images/purple_circle.png'></img>,32,850,test,purple_circle,go1,32,20,3,,,,,,,-1,-1,1400,0,ITI,poldrack-single-stim,558,681160,0.0-6.3-63.3,go_nogo_deval,433,,<div></div>,32,1400,test,,,,,,,,,,,,-1,-1,500,0,fixation,poldrack-single-stim,559,681661,0.0-6.3-64.3,go_nogo_deval,433,,<div class = centerbox><div class = fixation>+</div></div>,none,500,test,,,,,,,,,,,,446,32,850,0,stim,poldrack-single-stim,560,682512,0.0-6.3-65.3,go_nogo_deval,433,,<img class = center src='/static/experiments/go_nogo_deval/images/purple_circle.png'></img>,32,850,test,purple_circle,go1,32,21,3,,,,,,,-1,-1,1400,0,ITI,poldrack-single-stim,561,683914,0.0-6.3-66.3,go_nogo_deval,433,,<div></div>,32,1400,test,,,,,,,,,,,,-1,-1,500,0,fixation,poldrack-single-stim,562,684415,0.0-6.3-67.3,go_nogo_deval,433,,<div class = centerbox><div class = fixation>+</div></div>,none,500,test,,,,,,,,,,,,-1,-1,850,0,stim,poldrack-single-stim,563,685267,0.0-6.3-68.3,go_nogo_deval,433,,<img class = center src='/static/experiments/go_nogo_deval/images/blue_triangle.png'></img>,32,850,test,blue_triangle,nogo1,-1,22,3,,,,,,,-1,-1,1400,0,ITI,poldrack-single-stim,564,686668,0.0-6.3-69.3,go_nogo_deval,433,,<div></div>,32,1400,test,,,,,,,,,,,,-1,-1,500,0,fixation,poldrack-single-stim,565,687170,0.0-6.3-70.3,go_nogo_deval,433,,<div class = centerbox><div class = fixation>+</div></div>,none,500,test,,,,,,,,,,,,372,32,850,0,stim,poldrack-single-stim,566,688021,0.0-6.3-71.3,go_nogo_deval,433,,<img class = center src='/static/experiments/go_nogo_deval/images/purple_circle.png'></img>,32,850,test,purple_circle,go1,32,23,3,,,,,,,-1,-1,1400,0,ITI,poldrack-single-stim,567,689423,0.0-6.3-72.3,go_nogo_deval,433,,<div></div>,32,1400,test,,,,,,,,,,,,-1,-1,500,0,fixation,poldrack-single-stim,568,689924,0.0-6.3-73.3,go_nogo_deval,433,,<div class = centerbox><div class = fixation>+</div></div>,none,500,test,,,,,,,,,,,,407,32,850,0,stim,poldrack-single-stim,569,690776,0.0-6.3-74.3,go_nogo_deval,433,,<img class = center src='/static/experiments/go_nogo_deval/images/green_pentagon.png'></img>,32,850,test,green_pentagon,go2,32,24,3,,,,,,,-1,-1,1400,0,ITI,poldrack-single-stim,570,692177,0.0-6.3-75.3,go_nogo_deval,433,,<div></div>,32,1400,test,,,,,,,,,,,,-1,-1,500,0,fixation,poldrack-single-stim,571,692679,0.0-6.3-76.3,go_nogo_deval,433,,<div class = centerbox><div class = fixation>+</div></div>,none,500,test,,,,,,,,,,,