text,rt,key_press,block_duration,timing_post_trial,trial_id,trial_type,trial_index,time_elapsed,internal_node_id,exp_id,subject_ID,view_history,stimulus,possible_responses,stim_duration,exp_stage,stim,go_nogo_type,correct_response,current_trial,current_block,chosenStim,chosenCond,stimLeft,cond_left,stimRight,cond_right<div class = centerbox><p class = center-block-text>Welcome to the task!</p><p class = center-block-text>Press<strong> enter</strong> to continue.</p></div>,2726,13,2726,0,welcome,poldrack-text,0,2728,0.0-0.0,go_nogo_deval,463,,,,,,,,,,,,,,,,,68256,,,,instruction,poldrack-instructions,1,70985,0.0-1.0,go_nogo_deval,463,"[{""page_index"":0,""viewing_time"":3793},{""page_index"":1,""viewing_time"":64462}]",,,,,,,,,,,,,,,,8736,13,8736,0,stop_intro_phase1,poldrack-single-stim,2,80723,0.0-2.0,go_nogo_deval,463,,"<div class = centerbox><p class = block-text>We will now start the practice for the experiment.<br><br>For these trials, you must press the <strong>spacebar </strong> or have <strong>no response</strong> depending on the shape of the stimulus.  Make sure to respond as quickly and accurately as possible to the shape. <br><br> The responses for each shape are as follows: <ul list-text><li>circle: spacebar</li><li>pentagon: spacebar</li><li>triangle: no response</li><li>rhombus: no response</li></ul></p><p class = block-text>Remember these rules before you proceed.</p><p class = block-text>Press <strong> enter</strong> to begin.</p></div>",13,8736,,,,,,,,,,,,,2271,13,2271,0,practice-no-stop-feedback,poldrack-single-stim,3,82996,0.0-3.0-0.0,go_nogo_deval,463,,<div class = centerbox><p class = block-text>We will now start with a practice session. In this practice concentrate on responding quickly and accurately to each stimuli unless it requires no response.</p><p class = block-text>Press enter to continue.</p></div>,13,2271,,,,,,,,,,,,,-1,-1,500,0,prompt_fixation,poldrack-single-stim,4,83500,0.0-3.0-1.0,go_nogo_deval,463,,<div class = centerbox><div class = fixation>+</div></div>,none,500,practice,,,,,,,,,,,,-1,-1,850,0,stim,poldrack-single-stim,5,84352,0.0-3.0-2.0,go_nogo_deval,463,,<img class = center src='/static/experiments/go_nogo_deval/images/red_rhombus.png'></img>,32,850,practice,red_rhombus,nogo2,-1,0,0,,,,,,,161,32,1400,0,ITI,poldrack-single-stim,6,85755,0.0-3.0-3.0,go_nogo_deval,463,,<div></div>,32,1400,practice,,,,,,,,,,,,-1,-1,500,0,prompt_fixation,poldrack-single-stim,7,86257,0.0-3.0-4.0,go_nogo_deval,463,,<div class = centerbox><div class = fixation>+</div></div>,none,500,practice,,,,,,,,,,,,-1,-1,850,0,stim,poldrack-single-stim,8,87108,0.0-3.0-5.0,go_nogo_deval,463,,<img class = center src='/static/experiments/go_nogo_deval/images/purple_circle.png'></img>,32,850,practice,purple_circle,go1,32,1,0,,,,,,,218,32,1400,0,ITI,poldrack-single-stim,9,88509,0.0-3.0-6.0,go_nogo_deval,463,,<div></div>,32,1400,practice,,,,,,,,,,,,-1,-1,500,0,prompt_fixation,poldrack-single-stim,10,89011,0.0-3.0-7.0,go_nogo_deval,463,,<div class = centerbox><div class = fixation>+</div></div>,none,500,practice,,,,,,,,,,,,734,32,850,0,stim,poldrack-single-stim,11,89863,0.0-3.0-8.0,go_nogo_deval,463,,<img class = center src='/static/experiments/go_nogo_deval/images/blue_pentagon.png'></img>,32,850,practice,blue_pentagon,go2,32,2,0,,,,,,,-1,-1,1400,0,ITI,poldrack-single-stim,12,91265,0.0-3.0-9.0,go_nogo_deval,463,,<div></div>,32,1400,practice,,,,,,,,,,,,-1,-1,500,0,prompt_fixation,poldrack-single-stim,13,91767,0.0-3.0-10.0,go_nogo_deval,463,,<div class = centerbox><div class = fixation>+</div></div>,none,500,practice,,,,,,,,,,,,-1,-1,850,0,stim,poldrack-single-stim,14,92618,0.0-3.0-11.0,go_nogo_deval,463,,<img class = center src='/static/experiments/go_nogo_deval/images/green_triangle.png'></img>,32,850,practice,green_triangle,nogo1,-1,3,0,,,,,,,-1,-1,1400,0,ITI,poldrack-single-stim,15,94020,0.0-3.0-12.0,go_nogo_deval,463,,<div></div>,32,1400,practice,,,,,,,,,,,,-1,-1,500,0,prompt_fixation,poldrack-single-stim,16,94523,0.0-3.0-13.0,go_nogo_deval,463,,<div class = centerbox><div class = fixation>+</div></div>,none,500,practice,,,,,,,,,,,,556,32,850,0,stim,poldrack-single-stim,17,95375,0.0-3.0-14.0,go_nogo_deval,463,,<img class = center src='/static/experiments/go_nogo_deval/images/blue_pentagon.png'></img>,32,850,practice,blue_pentagon,go2,32,4,0,,,,,,,-1,-1,1400,0,ITI,poldrack-single-stim,18,96777,0.0-3.0-15.0,go_nogo_deval,463,,<div></div>,32,1400,practice,,,,,,,,,,,,-1,-1,500,0,prompt_fixation,poldrack-single-stim,19,97278,0.0-3.0-16.0,go_nogo_deval,463,,<div class = centerbox><div class = fixation>+</div></div>,none,500,practice,,,,,,,,,,,,623,32,850,0,stim,poldrack-single-stim,20,98130,0.0-3.0-17.0,go_nogo_deval,463,,<img class = center src='/static/experiments/go_nogo_deval/images/purple_circle.png'></img>,32,850,practice,purple_circle,go1,32,5,0,,,,,,,-1,-1,1400,0,ITI,poldrack-single-stim,21,99531,0.0-3.0-18.0,go_nogo_deval,463,,<div></div>,32,1400,practice,,,,,,,,,,,,-1,-1,500,0,prompt_fixation,poldrack-single-stim,22,100033,0.0-3.0-19.0,go_nogo_deval,463,,<div class = centerbox><div class = fixation>+</div></div>,none,500,practice,,,,,,,,,,,,556,32,850,0,stim,poldrack-single-stim,23,100886,0.0-3.0-20.0,go_nogo_deval,463,,<img class = center src='/static/experiments/go_nogo_deval/images/blue_pentagon.png'></img>,32,850,practice,blue_pentagon,go2,32,6,0,,,,,,,-1,-1,1400,0,ITI,poldrack-single-stim,24,102287,0.0-3.0-21.0,go_nogo_deval,463,,<div></div>,32,1400,practice,,,,,,,,,,,,-1,-1,500,0,prompt_fixation,poldrack-single-stim,25,102789,0.0-3.0-22.0,go_nogo_deval,463,,<div class = centerbox><div class = fixation>+</div></div>,none,500,practice,,,,,,,,,,,,546,32,850,0,stim,poldrack-single-stim,26,103641,0.0-3.0-23.0,go_nogo_deval,463,,<img class = center src='/static/experiments/go_nogo_deval/images/purple_circle.png'></img>,32,850,practice,purple_circle,go1,32,7,0,,,,,,,-1,-1,1400,0,ITI,poldrack-single-stim,27,105043,0.0-3.0-24.0,go_nogo_deval,463,,<div></div>,32,1400,practice,,,,,,,,,,,,-1,-1,500,0,prompt_fixation,poldrack-single-stim,28,105544,0.0-3.0-25.0,go_nogo_deval,463,,<div class = centerbox><div class = fixation>+</div></div>,none,500,practice,,,,,,,,,,,,413,32,850,0,stim,poldrack-single-stim,29,106396,0.0-3.0-26.0,go_nogo_deval,463,,<img class = center src='/static/experiments/go_nogo_deval/images/blue_pentagon.png'></img>,32,850,practice,blue_pentagon,go2,32,8,0,,,,,,,-1,-1,1400,0,ITI,poldrack-single-stim,30,107797,0.0-3.0-27.0,go_nogo_deval,463,,<div></div>,32,1400,practice,,,,,,,,,,,,-1,-1,500,0,prompt_fixation,poldrack-single-stim,31,108299,0.0-3.0-28.0,go_nogo_deval,463,,<div class = centerbox><div class = fixation>+</div></div>,none,500,practice,,,,,,,,,,,,515,32,850,0,stim,poldrack-single-stim,32,109151,0.0-3.0-29.0,go_nogo_deval,463,,<img class = center src='/static/experiments/go_nogo_deval/images/purple_circle.png'></img>,32,850,practice,purple_circle,go1,32,9,0,,,,,,,-1,-1,1400,0,ITI,poldrack-single-stim,33,110553,0.0-3.0-30.0,go_nogo_deval,463,,<div></div>,32,1400,practice,,,,,,,,,,,,-1,-1,500,0,prompt_fixation,poldrack-single-stim,34,111055,0.0-3.0-31.0,go_nogo_deval,463,,<div class = centerbox><div class = fixation>+</div></div>,none,500,practice,,,,,,,,,,,,616,32,850,0,stim,poldrack-single-stim,35,111907,0.0-3.0-32.0,go_nogo_deval,463,,<img class = center src='/static/experiments/go_nogo_deval/images/red_rhombus.png'></img>,32,850,practice,red_rhombus,nogo2,-1,10,0,,,,,,,-1,-1,1400,0,ITI,poldrack-single-stim,36,113309,0.0-3.0-33.0,go_nogo_deval,463,,<div></div>,32,1400,practice,,,,,,,,,,,,-1,-1,500,0,prompt_fixation,poldrack-single-stim,37,113810,0.0-3.0-34.0,go_nogo_deval,463,,<div class = centerbox><div class = fixation>+</div></div>,none,500,practice,,,,,,,,,,,,787,32,850,0,stim,poldrack-single-stim,38,114662,0.0-3.0-35.0,go_nogo_deval,463,,<img class = center src='/static/experiments/go_nogo_deval/images/blue_pentagon.png'></img>,32,850,practice,blue_pentagon,go2,32,11,0,,,,,,,-1,-1,1400,0,ITI,poldrack-single-stim,39,116063,0.0-3.0-36.0,go_nogo_deval,463,,<div></div>,32,1400,practice,,,,,,,,,,,,-1,-1,500,0,prompt_fixation,poldrack-single-stim,40,116565,0.0-3.0-37.0,go_nogo_deval,463,,<div class = centerbox><div class = fixation>+</div></div>,none,500,practice,,,,,,,,,,,,-1,-1,850,0,stim,poldrack-single-stim,41,117417,0.0-3.0-38.0,go_nogo_deval,463,,<img class = center src='/static/experiments/go_nogo_deval/images/red_rhombus.png'></img>,32,850,practice,red_rhombus,nogo2,-1,12,0,,,,,,,-1,-1,1400,0,ITI,poldrack-single-stim,42,118819,0.0-3.0-39.0,go_nogo_deval,463,,<div></div>,32,1400,practice,,,,,,,,,,,,-1,-1,500,0,prompt_fixation,poldrack-single-stim,43,119321,0.0-3.0-40.0,go_nogo_deval,463,,<div class = centerbox><div class = fixation>+</div></div>,none,500,practice,,,,,,,,,,,,496,32,850,0,stim,poldrack-single-stim,44,120173,0.0-3.0-41.0,go_nogo_deval,463,,<img class = center src='/static/experiments/go_nogo_deval/images/purple_circle.png'></img>,32,850,practice,purple_circle,go1,32,13,0,,,,,,,-1,-1,1400,0,ITI,poldrack-single-stim,45,121575,0.0-3.0-42.0,go_nogo_deval,463,,<div></div>,32,1400,practice,,,,,,,,,,,,-1,-1,500,0,prompt_fixation,poldrack-single-stim,46,122077,0.0-3.0-43.0,go_nogo_deval,463,,<div class = centerbox><div class = fixation>+</div></div>,none,500,practice,,,,,,,,,,,,530,32,850,0,stim,poldrack-single-stim,47,122928,0.0-3.0-44.0,go_nogo_deval,463,,<img class = center src='/static/experiments/go_nogo_deval/images/blue_pentagon.png'></img>,32,850,practice,blue_pentagon,go2,32,14,0,,,,,,,-1,-1,1400,0,ITI,poldrack-single-stim,48,124330,0.0-3.0-45.0,go_nogo_deval,463,,<div></div>,32,1400,practice,,,,,,,,,,,,-1,-1,500,0,prompt_fixation,poldrack-single-stim,49,124832,0.0-3.0-46.0,go_nogo_deval,463,,<div class = centerbox><div class = fixation>+</div></div>,none,500,practice,,,,,,,,,,,,-1,-1,850,0,stim,poldrack-single-stim,50,125685,0.0-3.0-47.0,go_nogo_deval,463,,<img class = center src='/static/experiments/go_nogo_deval/images/green_triangle.png'></img>,32,850,practice,green_triangle,nogo1,-1,15,0,,,,,,,-1,-1,1400,0,ITI,poldrack-single-stim,51,127087,0.0-3.0-48.0,go_nogo_deval,463,,<div></div>,32,1400,practice,,,,,,,,,,,,-1,-1,500,0,prompt_fixation,poldrack-single-stim,52,127589,0.0-3.0-49.0,go_nogo_deval,463,,<div class = centerbox><div class = fixation>+</div></div>,none,500,practice,,,,,,,,,,,,519,32,850,0,stim,poldrack-single-stim,53,128441,0.0-3.0-50.0,go_nogo_deval,463,,<img class = center src='/static/experiments/go_nogo_deval/images/purple_circle.png'></img>,32,850,practice,purple_circle,go1,32,16,0,,,,,,,-1,-1,1400,0,ITI,poldrack-single-stim,54,129842,0.0-3.0-51.0,go_nogo_deval,463,,<div></div>,32,1400,practice,,,,,,,,,,,,-1,-1,500,0,prompt_fixation,poldrack-single-stim,55,130344,0.0-3.0-52.0,go_nogo_deval,463,,<div class = centerbox><div class = fixation>+</div></div>,none,500,practice,,,,,,,,,,,,-1,-1,850,0,stim,poldrack-single-stim,56,131195,0.0-3.0-53.0,go_nogo_deval,463,,<img class = center src='/static/experiments/go_nogo_deval/images/green_triangle.png'></img>,32,850,practice,green_triangle,nogo1,-1,17,0,,,,,,,-1,-1,1400,0,ITI,poldrack-single-stim,57,132597,0.0-3.0-54.0,go_nogo_deval,463,,<div></div>,32,1400,practice,,,,,,,,,,,,8347,13,8347,0,practice-no-stop-feedback,poldrack-single-stim,58,140945,0.0-4.0,go_nogo_deval,463,,<div class = centerbox><p class = block-text><br>Please take this time to read your feedback and to take a short break! Press enter to continue</p><p class = block-text><strong>Average reaction time:  574 ms. Accuracy: 89%</strong></p><p class = block-text>Done with this practice.</p></div>,13,8347,,,,,,,,,,,,,27056,13,27056,0,main_stop_intro_phase3,poldrack-single-stim,59,168002,0.0-5.0,go_nogo_deval,463,,"<div class = centerbox><p class = block-text>We will now start the main phase of the experiment.<br><br>These trials are the same as the trials that you have just completed. <br><br>The rules for each shape are as follows:  <br><ul list-text><li>circle: spacebar</li><li>pentagon: spacebar</li><li>triangle: no response</li><li>rhombus: no response</li></ul></p><p class = block-text>Remember these rules before you proceed, as they will no longer be presented during the trial.</p><p class = block-text>Press <strong> enter</strong> to begin.</p></div>",13,27056,,,,,,,,,,,,,1495,13,1495,0,practice-no-stop-feedback,poldrack-single-stim,60,169497,0.0-6.0-0.0,go_nogo_deval,463,,"<div class = centerbox><p class = block-text>We will now start with a test session. In this test, concentrate on responding quickly and accurately to each stimuli unless it requires no response.</p><p class = block-text>Press enter to continue.</p></div>",13,1495,,,,,,,,,,,,,-1,-1,500,0,fixation,poldrack-single-stim,61,169999,0.0-6.0-1.0,go_nogo_deval,463,,<div class = centerbox><div class = fixation>+</div></div>,none,500,test,,,,,,,,,,,,578,32,850,0,stim,poldrack-single-stim,62,170851,0.0-6.0-2.0,go_nogo_deval,463,,<img class = center src='/static/experiments/go_nogo_deval/images/blue_pentagon.png'></img>,32,850,test,blue_pentagon,go2,32,0,0,,,,,,,-1,-1,1400,0,ITI,poldrack-single-stim,63,172253,0.0-6.0-3.0,go_nogo_deval,463,,<div></div>,32,1400,test,,,,,,,,,,,,-1,-1,500,0,fixation,poldrack-single-stim,64,172755,0.0-6.0-4.0,go_nogo_deval,463,,<div class = centerbox><div class = fixation>+</div></div>,none,500,test,,,,,,,,,,,,-1,-1,850,0,stim,poldrack-single-stim,65,173607,0.0-6.0-5.0,go_nogo_deval,463,,<img class = center src='/static/experiments/go_nogo_deval/images/green_triangle.png'></img>,32,850,test,green_triangle,nogo1,-1,1,0,,,,,,,-1,-1,1400,0,ITI,poldrack-single-stim,66,175008,0.0-6.0-6.0,go_nogo_deval,463,,<div></div>,32,1400,test,,,,,,,,,,,,-1,-1,500,0,fixation,poldrack-single-stim,67,175510,0.0-6.0-7.0,go_nogo_deval,463,,<div class = centerbox><div class = fixation>+</div></div>,none,500,test,,,,,,,,,,,,388,32,850,0,stim,poldrack-single-stim,68,176361,0.0-6.0-8.0,go_nogo_deval,463,,<img class = center src='/static/experiments/go_nogo_deval/images/red_rhombus.png'></img>,32,850,test,red_rhombus,nogo2,-1,2,0,,,,,,,-1,-1,1400,0,ITI,poldrack-single-stim,69,177763,0.0-6.0-9.0,go_nogo_deval,463,,<div></div>,32,1400,test,,,,,,,,,,,,-1,-1,500,0,fixation,poldrack-single-stim,70,178264,0.0-6.0-10.0,go_nogo_deval,463,,<div class = centerbox><div class = fixation>+</div></div>,none,500,test,,,,,,,,,,,,672,32,850,0,stim,poldrack-single-stim,71,179116,0.0-6.0-11.0,go_nogo_deval,463,,<img class = center src='/static/experiments/go_nogo_deval/images/purple_circle.png'></img>,32,850,test,purple_circle,go1,32,3,0,,,,,,,-1,-1,1400,0,ITI,poldrack-single-stim,72,180517,0.0-6.0-12.0,go_nogo_deval,463,,<div></div>,32,1400,test,,,,,,,,,,,,-1,-1,500,0,fixation,poldrack-single-stim,73,181019,0.0-6.0-13.0,go_nogo_deval,463,,<div class = centerbox><div class = fixation>+</div></div>,none,500,test,,,,,,,,,,,,-1,-1,850,0,stim,poldrack-single-stim,74,181871,0.0-6.0-14.0,go_nogo_deval,463,,<img class = center src='/static/experiments/go_nogo_deval/images/green_triangle.png'></img>,32,850,test,green_triangle,nogo1,-1,4,0,,,,,,,-1,-1,1400,0,ITI,poldrack-single-stim,75,183273,0.0-6.0-15.0,go_nogo_deval,463,,<div></div>,32,1400,test,,,,,,,,,,,,-1,-1,500,0,fixation,poldrack-single-stim,76,183775,0.0-6.0-16.0,go_nogo_deval,463,,<div class = centerbox><div class = fixation>+</div></div>,none,500,test,,,,,,,,,,,,762,32,850,0,stim,poldrack-single-stim,77,184627,0.0-6.0-17.0,go_nogo_deval,463,,<img class = center src='/static/experiments/go_nogo_deval/images/purple_circle.png'></img>,32,850,test,purple_circle,go1,32,5,0,,,,,,,-1,-1,1400,0,ITI,poldrack-single-stim,78,186028,0.0-6.0-18.0,go_nogo_deval,463,,<div></div>,32,1400,test,,,,,,,,,,,,-1,-1,500,0,fixation,poldrack-single-stim,79,186530,0.0-6.0-19.0,go_nogo_deval,463,,<div class = centerbox><div class = fixation>+</div></div>,none,500,test,,,,,,,,,,,,742,32,850,0,stim,poldrack-single-stim,80,187382,0.0-6.0-20.0,go_nogo_deval,463,,<img class = center src='/static/experiments/go_nogo_deval/images/blue_pentagon.png'></img>,32,850,test,blue_pentagon,go2,32,6,0,,,,,,,-1,-1,1400,0,ITI,poldrack-single-stim,81,188783,0.0-6.0-21.0,go_nogo_deval,463,,<div></div>,32,1400,test,,,,,,,,,,,,-1,-1,500,0,fixation,poldrack-single-stim,82,189285,0.0-6.0-22.0,go_nogo_deval,463,,<div class = centerbox><div class = fixation>+</div></div>,none,500,test,,,,,,,,,,,,440,32,850,0,stim,poldrack-single-stim,83,190136,0.0-6.0-23.0,go_nogo_deval,463,,<img class = center src='/static/experiments/go_nogo_deval/images/purple_circle.png'></img>,32,850,test,purple_circle,go1,32,7,0,,,,,,,-1,-1,1400,0,ITI,poldrack-single-stim,84,191538,0.0-6.0-24.0,go_nogo_deval,463,,<div></div>,32,1400,test,,,,,,,,,,,,-1,-1,500,0,fixation,poldrack-single-stim,85,192040,0.0-6.0-25.0,go_nogo_deval,463,,<div class = centerbox><div class = fixation>+</div></div>,none,500,test,,,,,,,,,,,,519,32,850,0,stim,poldrack-single-stim,86,192891,0.0-6.0-26.0,go_nogo_deval,463,,<img class = center src='/static/experiments/go_nogo_deval/images/purple_circle.png'></img>,32,850,test,purple_circle,go1,32,8,0,,,,,,,-1,-1,1400,0,ITI,poldrack-single-stim,87,194293,0.0-6.0-27.0,go_nogo_deval,463,,<div></div>,32,1400,test,,,,,,,,,,,,-1,-1,500,0,fixation,poldrack-single-stim,88,194794,0.0-6.0-28.0,go_nogo_deval,463,,<div class = centerbox><div class = fixation>+</div></div>,none,500,test,,,,,,,,,,,,522,32,850,0,stim,poldrack-single-stim,89,195646,0.0-6.0-29.0,go_nogo_deval,463,,<img class = center src='/static/experiments/go_nogo_deval/images/purple_circle.png'></img>,32,850,test,purple_circle,go1,32,9,0,,,,,,,-1,-1,1400,0,ITI,poldrack-single-stim,90,197048,0.0-6.0-30.0,go_nogo_deval,463,,<div></div>,32,1400,test,,,,,,,,,,,,-1,-1,500,0,fixation,poldrack-single-stim,91,197550,0.0-6.0-31.0,go_nogo_deval,463,,<div class = centerbox><div class = fixation>+</div></div>,none,500,test,,,,,,,,,,,,511,32,850,0,stim,poldrack-single-stim,92,198401,0.0-6.0-32.0,go_nogo_deval,463,,<img class = center src='/static/experiments/go_nogo_deval/images/blue_pentagon.png'></img>,32,850,test,blue_pentagon,go2,32,10,0,,,,,,,-1,-1,1400,0,ITI,poldrack-single-stim,93,199803,0.0-6.0-33.0,go_nogo_deval,463,,<div></div>,32,1400,test,,,,,,,,,,,,-1,-1,500,0,fixation,poldrack-single-stim,94,200305,0.0-6.0-34.0,go_nogo_deval,463,,<div class = centerbox><div class = fixation>+</div></div>,none,500,test,,,,,,,,,,,,558,32,850,0,stim,poldrack-single-stim,95,201156,0.0-6.0-35.0,go_nogo_deval,463,,<img class = center src='/static/experiments/go_nogo_deval/images/blue_pentagon.png'></img>,32,850,test,blue_pentagon,go2,32,11,0,,,,,,,-1,-1,1400,0,ITI,poldrack-single-stim,96,202558,0.0-6.0-36.0,go_nogo_deval,463,,<div></div>,32,1400,test,,,,,,,,,,,,-1,-1,500,0,fixation,poldrack-single-stim,97,203059,0.0-6.0-37.0,go_nogo_deval,463,,<div class = centerbox><div class = fixation>+</div></div>,none,500,test,,,,,,,,,,,,447,32,850,0,stim,poldrack-single-stim,98,203910,0.0-6.0-38.0,go_nogo_deval,463,,<img class = center src='/static/experiments/go_nogo_deval/images/blue_pentagon.png'></img>,32,850,test,blue_pentagon,go2,32,12,0,,,,,,,-1,-1,1400,0,ITI,poldrack-single-stim,99,205311,0.0-6.0-39.0,go_nogo_deval,463,,<div></div>,32,1400,test,,,,,,,,,,,,-1,-1,500,0,fixation,poldrack-single-stim,100,205813,0.0-6.0-40.0,go_nogo_deval,463,,<div class = centerbox><div class = fixation>+</div></div>,none,500,test,,,,,,,,,,,,-1,-1,850,0,stim,poldrack-single-stim,101,206665,0.0-6.0-41.0,go_nogo_deval,463,,<img class = center src='/static/experiments/go_nogo_deval/images/red_rhombus.png'></img>,32,850,test,red_rhombus,nogo2,-1,13,0,,,,,,,-1,-1,1400,0,ITI,poldrack-single-stim,102,208066,0.0-6.0-42.0,go_nogo_deval,463,,<div></div>,32,1400,test,,,,,,,,,,,,-1,-1,500,0,fixation,poldrack-single-stim,103,208568,0.0-6.0-43.0,go_nogo_deval,463,,<div class = centerbox><div class = fixation>+</div></div>,none,500,test,,,,,,,,,,,,507,32,850,0,stim,poldrack-single-stim,104,209419,0.0-6.0-44.0,go_nogo_deval,463,,<img class = center src='/static/experiments/go_nogo_deval/images/blue_pentagon.png'></img>,32,850,test,blue_pentagon,go2,32,14,0,,,,,,,-1,-1,1400,0,ITI,poldrack-single-stim,105,210821,0.0-6.0-45.0,go_nogo_deval,463,,<div></div>,32,1400,test,,,,,,,,,,,,-1,-1,500,0,fixation,poldrack-single-stim,106,211322,0.0-6.0-46.0,go_nogo_deval,463,,<div class = centerbox><div class = fixation>+</div></div>,none,500,test,,,,,,,,,,,,-1,-1,850,0,stim,poldrack-single-stim,107,212174,0.0-6.0-47.0,go_nogo_deval,463,,<img class = center src='/static/experiments/go_nogo_deval/images/green_triangle.png'></img>,32,850,test,green_triangle,nogo1,-1,15,0,,,,,,,-1,-1,1400,0,ITI,poldrack-single-stim,108,213575,0.0-6.0-48.0,go_nogo_deval,463,,<div></div>,32,1400,test,,,,,,,,,,,,-1,-1,500,0,fixation,poldrack-single-stim,109,214077,0.0-6.0-49.0,go_nogo_deval,463,,<div class = centerbox><div class = fixation>+</div></div>,none,500,test,,,,,,,,,,,,342,32,850,0,stim,poldrack-single-stim,110,214929,0.0-6.0-50.0,go_nogo_deval,463,,<img class = center src='/static/experiments/go_nogo_deval/images/purple_circle.png'></img>,32,850,test,purple_circle,go1,32,16,0,,,,,,,-1,-1,1400,0,ITI,poldrack-single-stim,111,216331,0.0-6.0-51.0,go_nogo_deval,463,,<div></div>,32,1400,test,,,,,,,,,,,,-1,-1,500,0,fixation,poldrack-single-stim,112,216833,0.0-6.0-52.0,go_nogo_deval,463,,<div class = centerbox><div class = fixation>+</div></div>,none,500,test,,,,,,,,,,,,488,32,850,0,stim,poldrack-single-stim,113,217685,0.0-6.0-53.0,go_nogo_deval,463,,<img class = center src='/static/experiments/go_nogo_deval/images/purple_circle.png'></img>,32,850,test,purple_circle,go1,32,17,0,,,,,,,-1,-1,1400,0,ITI,poldrack-single-stim,114,219086,0.0-6.0-54.0,go_nogo_deval,463,,<div></div>,32,1400,test,,,,,,,,,,,,-1,-1,500,0,fixation,poldrack-single-stim,115,219587,0.0-6.0-55.0,go_nogo_deval,463,,<div class = centerbox><div class = fixation>+</div></div>,none,500,test,,,,,,,,,,,,534,32,850,0,stim,poldrack-single-stim,116,220439,0.0-6.0-56.0,go_nogo_deval,463,,<img class = center src='/static/experiments/go_nogo_deval/images/blue_pentagon.png'></img>,32,850,test,blue_pentagon,go2,32,18,0,,,,,,,-1,-1,1400,0,ITI,poldrack-single-stim,117,221841,0.0-6.0-57.0,go_nogo_deval,463,,<div></div>,32,1400,test,,,,,,,,,,,,-1,-1,500,0,fixation,poldrack-single-stim,118,222343,0.0-6.0-58.0,go_nogo_deval,463,,<div class = centerbox><div class = fixation>+</div></div>,none,500,test,,,,,,,,,,,,502,32,850,0,stim,poldrack-single-stim,119,223193,0.0-6.0-59.0,go_nogo_deval,463,,<img class = center src='/static/experiments/go_nogo_deval/images/blue_pentagon.png'></img>,32,850,test,blue_pentagon,go2,32,19,0,,,,,,,-1,-1,1400,0,ITI,poldrack-single-stim,120,224595,0.0-6.0-60.0,go_nogo_deval,463,,<div></div>,32,1400,test,,,,,,,,,,,,-1,-1,500,0,fixation,poldrack-single-stim,121,225097,0.0-6.0-61.0,go_nogo_deval,463,,<div class = centerbox><div class = fixation>+</div></div>,none,500,test,,,,,,,,,,,,-1,-1,850,0,stim,poldrack-single-stim,122,225949,0.0-6.0-62.0,go_nogo_deval,463,,<img class = center src='/static/experiments/go_nogo_deval/images/green_triangle.png'></img>,32,850,test,green_triangle,nogo1,-1,20,0,,,,,,,-1,-1,1400,0,ITI,poldrack-single-stim,123,227351,0.0-6.0-63.0,go_nogo_deval,463,,<div></div>,32,1400,test,,,,,,,,,,,,-1,-1,500,0,fixation,poldrack-single-stim,124,227852,0.0-6.0-64.0,go_nogo_deval,463,,<div class = centerbox><div class = fixation>+</div></div>,none,500,test,,,,,,,,,,,,-1,-1,850,0,stim,poldrack-single-stim,125,228704,0.0-6.0-65.0,go_nogo_deval,463,,<img class = center src='/static/experiments/go_nogo_deval/images/red_rhombus.png'></img>,32,850,test,red_rhombus,nogo2,-1,21,0,,,,,,,-1,-1,1400,0,ITI,poldrack-single-stim,126,230106,0.0-6.0-66.0,go_nogo_deval,463,,<div></div>,32,1400,test,,,,,,,,,,,,-1,-1,500,0,fixation,poldrack-single-stim,127,230608,0.0-6.0-67.0,go_nogo_deval,463,,<div class = centerbox><div class = fixation>+</div></div>,none,500,test,,,,,,,,,,,,405,32,850,0,stim,poldrack-single-stim,128,231459,0.0-6.0-68.0,go_nogo_deval,463,,<img class = center src='/static/experiments/go_nogo_deval/images/purple_circle.png'></img>,32,850,test,purple_circle,go1,32,22,0,,,,,,,-1,-1,1400,0,ITI,poldrack-single-stim,129,232861,0.0-6.0-69.0,go_nogo_deval,463,,<div></div>,32,1400,test,,,,,,,,,,,,-1,-1,500,0,fixation,poldrack-single-stim,130,233363,0.0-6.0-70.0,go_nogo_deval,463,,<div class = centerbox><div class = fixation>+</div></div>,none,500,test,,,,,,,,,,,,-1,-1,850,0,stim,poldrack-single-stim,131,234215,0.0-6.0-71.0,go_nogo_deval,463,,<img class = center src='/static/experiments/go_nogo_deval/images/red_rhombus.png'></img>,32,850,test,red_rhombus,nogo2,-1,23,0,,,,,,,-1,-1,1400,0,ITI,poldrack-single-stim,132,235618,0.0-6.0-72.0,go_nogo_deval,463,,<div></div>,32,1400,test,,,,,,,,,,,,-1,-1,500,0,fixation,poldrack-single-stim,133,236119,0.0-6.0-73.0,go_nogo_deval,463,,<div class = centerbox><div class = fixation>+</div></div>,none,500,test,,,,,,,,,,,,472,32,850,0,stim,poldrack-single-stim,134,236971,0.0-6.0-74.0,go_nogo_deval,463,,<img class = center src='/static/experiments/go_nogo_deval/images/blue_pentagon.png'></img>,32,850,test,blue_pentagon,go2,32,24,0,,,,,,,-1,-1,1400,0,ITI,poldrack-single-stim,135,238373,0.0-6.0-75.0,go_nogo_deval,463,,<div></div>,32,1400,test,,,,,,,,,,,,-1,-1,500,0,fixation,poldrack-single-stim,136,238875,0.0-6.0-76.0,go_nogo_deval,463,,<div class = centerbox><div class = fixation>+</div></div>,none,500,test,,,,,,,,,,,,-1,-1,850,0,stim,poldrack-single-stim,137,239727,0.0-6.0-77.0,go_nogo_deval,463,,<img class = center src='/static/experiments/go_nogo_deval/images/red_rhombus.png'></img>,32,850,test,red_rhombus,nogo2,-1,25,0,,,,,,,-1,-1,1400,0,ITI,poldrack-single-stim,138,241128,0.0-6.0-78.0,go_nogo_deval,463,,<div></div>,32,1400,test,,,,,,,,,,,,-1,-1,500,0,fixation,poldrack-single-stim,139,241630,0.0-6.0-79.0,go_nogo_deval,463,,<div class = centerbox><div class = fixation>+</div></div>,none,500,test,,,,,,,,,,,,419,32,850,0,stim,poldrack-single-stim,140,242482,0.0-6.0-80.0,go_nogo_deval,463,,<img class = center src='/static/experiments/go_nogo_deval/images/blue_pentagon.png'></img>,32,850,test,blue_pentagon,go2,32,26,0,,,,,,,-1,-1,1400,0,ITI,poldrack-single-stim,141,243885,0.0-6.0-81.0,go_nogo_deval,463,,<div></div>,32,1400,test,,,,,,,,,,,,-1,-1,500,0,fixation,poldrack-single-stim,142,244386,0.0-6.0-82.0,go_nogo_deval,463,,<div class = centerbox><div class = fixation>+</div></div>,none,500,test,,,,,,,,,,,,441,32,850,0,stim,poldrack-single-stim,143,245238,0.0-6.0-83.0,go_nogo_deval,463,,<img class = center src='/static/experiments/go_nogo_deval/images/purple_circle.png'></img>,32,850,test,purple_circle,go1,32,27,0,,,,,,,-1,-1,1400,0,ITI,poldrack-single-stim,144,246638,0.0-6.0-84.0,go_nogo_deval,463,,<div></div>,32,1400,test,,,,,,,,,,,,-1,-1,500,0,fixation,poldrack-single-stim,145,247140,0.0-6.0-85.0,go_nogo_deval,463,,<div class = centerbox><div class = fixation>+</div></div>,none,500,test,,,,,,,,,,,,-1,-1,850,0,stim,poldrack-single-stim,146,247991,0.0-6.0-86.0,go_nogo_deval,463,,<img class = center src='/static/experiments/go_nogo_deval/images/green_triangle.png'></img>,32,850,test,green_triangle,nogo1,-1,28,0,,,,,,,-1,-1,1400,0,ITI,poldrack-single-stim,147,249393,0.0-6.0-87.0,go_nogo_deval,463,,<div></div>,32,1400,test,,,,,,,,,,,,-1,-1,500,0,fixation,poldrack-single-stim,148,249895,0.0-6.0-88.0,go_nogo_deval,463,,<div class = centerbox><div class = fixation>+</div></div>,none,500,test,,,,,,,,,,,,546,32,850,0,stim,poldrack-single-stim,149,250747,0.0-6.0-89.0,go_nogo_deval,463,,<img class = center src='/static/experiments/go_nogo_deval/images/blue_pentagon.png'></img>,32,850,test,blue_pentagon,go2,32,29,0,,,,,,,-1,-1,1400,0,ITI,poldrack-single-stim,150,252149,0.0-6.0-90.0,go_nogo_deval,463,,<div></div>,32,1400,test,,,,,,,,,,,,-1,-1,500,0,fixation,poldrack-single-stim,151,252650,0.0-6.0-91.0,go_nogo_deval,463,,<div class = centerbox><div class = fixation>+</div></div>,none,500,test,,,,,,,,,,,,457,32,850,0,stim,poldrack-single-stim,152,253501,0.0-6.0-92.0,go_nogo_deval,463,,<img class = center src='/static/experiments/go_nogo_deval/images/purple_circle.png'></img>,32,850,test,purple_circle,go1,32,30,0,,,,,,,-1,-1,1400,0,ITI,poldrack-single-stim,153,254903,0.0-6.0-93.0,go_nogo_deval,463,,<div></div>,32,1400,test,,,,,,,,,,,,-1,-1,500,0,fixation,poldrack-single-stim,154,255405,0.0-6.0-94.0,go_nogo_deval,463,,<div class = centerbox><div class = fixation>+</div></div>,none,500,test,,,,,,,,,,,,470,32,850,0,stim,poldrack-single-stim,155,256257,0.0-6.0-95.0,go_nogo_deval,463,,<img class = center src='/static/experiments/go_nogo_deval/images/blue_pentagon.png'></img>,32,850,test,blue_pentagon,go2,32,31,0,,,,,,,-1,-1,1400,0,ITI,poldrack-single-stim,156,257659,0.0-6.0-96.0,go_nogo_deval,463,,<div></div>,32,1400,test,,,,,,,,,,,,-1,-1,500,0,fixation,poldrack-single-stim,157,258161,0.0-6.0-97.0,go_nogo_deval,463,,<div class = centerbox><div class = fixation>+</div></div>,none,500,test,,,,,,,,,,,,459,32,850,0,stim,poldrack-single-stim,158,259012,0.0-6.0-98.0,go_nogo_deval,463,,<img class = center src='/static/experiments/go_nogo_deval/images/green_triangle.png'></img>,32,850,test,green_triangle,nogo1,-1,32,0,,,,,,,-1,-1,1400,0,ITI,poldrack-single-stim,159,260413,0.0-6.0-99.0,go_nogo_deval,463,,<div></div>,32,1400,test,,,,,,,,,,,,-1,-1,500,0,fixation,poldrack-single-stim,160,260914,0.0-6.0-100.0,go_nogo_deval,463,,<div class = centerbox><div class = fixation>+</div></div>,none,500,test,,,,,,,,,,,,540,32,850,0,stim,poldrack-single-stim,161,261766,0.0-6.0-101.0,go_nogo_deval,463,,<img class = center src='/static/experiments/go_nogo_deval/images/blue_pentagon.png'></img>,32,850,test,blue_pentagon,go2,32,33,0,,,,,,,-1,-1,1400,0,ITI,poldrack-single-stim,162,263167,0.0-6.0-102.0,go_nogo_deval,463,,<div></div>,32,1400,test,,,,,,,,,,,,-1,-1,500,0,fixation,poldrack-single-stim,163,263669,0.0-6.0-103.0,go_nogo_deval,463,,<div class = centerbox><div class = fixation>+</div></div>,none,500,test,,,,,,,,,,,,-1,-1,850,0,stim,poldrack-single-stim,164,264521,0.0-6.0-104.0,go_nogo_deval,463,,<img class = center src='/static/experiments/go_nogo_deval/images/red_rhombus.png'></img>,32,850,test,red_rhombus,nogo2,-1,34,0,,,,,,,-1,-1,1400,0,ITI,poldrack-single-stim,165,265923,0.0-6.0-105.0,go_nogo_deval,463,,<div></div>,32,1400,test,,,,,,,,,,,,-1,-1,500,0,fixation,poldrack-single-stim,166,266425,0.0-6.0-106.0,go_nogo_deval,463,,<div class = centerbox><div class = fixation>+</div></div>,none,500,test,,,,,,,,,,,,-1,-1,850,0,stim,poldrack-single-stim,167,267277,0.0-6.0-107.0,go_nogo_deval,463,,<img class = center src='/static/experiments/go_nogo_deval/images/red_rhombus.png'></img>,32,850,test,red_rhombus,nogo2,-1,35,0,,,,,,,-1,-1,1400,0,ITI,poldrack-single-stim,168,268679,0.0-6.0-108.0,go_nogo_deval,463,,<div></div>,32,1400,test,,,,,,,,,,,,-1,-1,500,0,fixation,poldrack-single-stim,169,269180,0.0-6.0-109.0,go_nogo_deval,463,,<div class = centerbox><div class = fixation>+</div></div>,none,500,test,,,,,,,,,,,,-1,-1,850,0,stim,poldrack-single-stim,170,270032,0.0-6.0-110.0,go_nogo_deval,463,,<img class = center src='/static/experiments/go_nogo_deval/images/green_triangle.png'></img>,32,850,test,green_triangle,nogo1,-1,36,0,,,,,,,-1,-1,1400,0,ITI,poldrack-single-stim,171,271433,0.0-6.0-111.0,go_nogo_deval,463,,<div></div>,32,1400,test,,,,,,,,,,,,-1,-1,500,0,fixation,poldrack-single-stim,172,271935,0.0-6.0-112.0,go_nogo_deval,463,,<div class = centerbox><div class = fixation>+</div></div>,none,500,test,,,,,,,,,,,,411,32,850,0,stim,poldrack-single-stim,173,272787,0.0-6.0-113.0,go_nogo_deval,463,,<img class = center src='/static/experiments/go_nogo_deval/images/blue_pentagon.png'></img>,32,850,test,blue_pentagon,go2,32,37,0,,,,,,,-1,-1,1400,0,ITI,poldrack-single-stim,174,274188,0.0-6.0-114.0,go_nogo_deval,463,,<div></div>,32,1400,test,,,,,,,,,,,,-1,-1,500,0,fixation,poldrack-single-stim,175,274690,0.0-6.0-115.0,go_nogo_deval,463,,<div class = centerbox><div class = fixation>+</div></div>,none,500,test,,,,,,,,,,,,535,32,850,0,stim,poldrack-single-stim,176,275542,0.0-6.0-116.0,go_nogo_deval,463,,<img class = center src='/static/experiments/go_nogo_deval/images/blue_pentagon.png'></img>,32,850,test,blue_pentagon,go2,32,38,0,,,,,,,-1,-1,1400,0,ITI,poldrack-single-stim,177,276943,0.0-6.0-117.0,go_nogo_deval,463,,<div></div>,32,1400,test,,,,,,,,,,,,-1,-1,500,0,fixation,poldrack-single-stim,178,277444,0.0-6.0-118.0,go_nogo_deval,463,,<div class = centerbox><div class = fixation>+</div></div>,none,500,test,,,,,,,,,,,,582,32,850,0,stim,poldrack-single-stim,179,278296,0.0-6.0-119.0,go_nogo_deval,463,,<img class = center src='/static/experiments/go_nogo_deval/images/purple_circle.png'></img>,32,850,test,purple_circle,go1,32,39,0,,,,,,,-1,-1,1400,0,ITI,poldrack-single-stim,180,279698,0.0-6.0-120.0,go_nogo_deval,463,,<div></div>,32,1400,test,,,,,,,,,,,,-1,-1,500,0,fixation,poldrack-single-stim,181,280200,0.0-6.0-121.0,go_nogo_deval,463,,<div class = centerbox><div class = fixation>+</div></div>,none,500,test,,,,,,,,,,,,470,32,850,0,stim,poldrack-single-stim,182,281051,0.0-6.0-122.0,go_nogo_deval,463,,<img class = center src='/static/experiments/go_nogo_deval/images/purple_circle.png'></img>,32,850,test,purple_circle,go1,32,40,0,,,,,,,-1,-1,1400,0,ITI,poldrack-single-stim,183,282453,0.0-6.0-123.0,go_nogo_deval,463,,<div></div>,32,1400,test,,,,,,,,,,,,-1,-1,500,0,fixation,poldrack-single-stim,184,282955,0.0-6.0-124.0,go_nogo_deval,463,,<div class = centerbox><div class = fixation>+</div></div>,none,500,test,,,,,,,,,,,,505,32,850,0,stim,poldrack-single-stim,185,283806,0.0-6.0-125.0,go_nogo_deval,463,,<img class = center src='/static/experiments/go_nogo_deval/images/purple_circle.png'></img>,32,850,test,purple_circle,go1,32,41,0,,,,,,,-1,-1,1400,0,ITI,poldrack-single-stim,186,285208,0.0-6.0-126.0,go_nogo_deval,463,,<div></div>,32,1400,test,,,,,,,,,,,,-1,-1,500,0,fixation,poldrack-single-stim,187,285709,0.0-6.0-127.0,go_nogo_deval,463,,<div class = centerbox><div class = fixation>+</div></div>,none,500,test,,,,,,,,,,,,496,32,850,0,stim,poldrack-single-stim,188,286560,0.0-6.0-128.0,go_nogo_deval,463,,<img class = center src='/static/experiments/go_nogo_deval/images/blue_pentagon.png'></img>,32,850,test,blue_pentagon,go2,32,42,0,,,,,,,-1,-1,1400,0,ITI,poldrack-single-stim,189,287962,0.0-6.0-129.0,go_nogo_deval,463,,<div></div>,32,1400,test,,,,,,,,,,,,-1,-1,500,0,fixation,poldrack-single-stim,190,288464,0.0-6.0-130.0,go_nogo_deval,463,,<div class = centerbox><div class = fixation>+</div></div>,none,500,test,,,,,,,,,,,,-1,-1,850,0,stim,poldrack-single-stim,191,289315,0.0-6.0-131.0,go_nogo_deval,463,,<img class = center src='/static/experiments/go_nogo_deval/images/red_rhombus.png'></img>,32,850,test,red_rhombus,nogo2,-1,43,0,,,,,,,-1,-1,1400,0,ITI,poldrack-single-stim,192,290717,0.0-6.0-132.0,go_nogo_deval,463,,<div></div>,32,1400,test,,,,,,,,,,,,-1,-1,500,0,fixation,poldrack-single-stim,193,291219,0.0-6.0-133.0,go_nogo_deval,463,,<div class = centerbox><div class = fixation>+</div></div>,none,500,test,,,,,,,,,,,,499,32,850,0,stim,poldrack-single-stim,194,292070,0.0-6.0-134.0,go_nogo_deval,463,,<img class = center src='/static/experiments/go_nogo_deval/images/purple_circle.png'></img>,32,850,test,purple_circle,go1,32,44,0,,,,,,,-1,-1,1400,0,ITI,poldrack-single-stim,195,293471,0.0-6.0-135.0,go_nogo_deval,463,,<div></div>,32,1400,test,,,,,,,,,,,,-1,-1,500,0,fixation,poldrack-single-stim,196,293973,0.0-6.0-136.0,go_nogo_deval,463,,<div class = centerbox><div class = fixation>+</div></div>,none,500,test,,,,,,,,,,,,501,32,850,0,stim,poldrack-single-stim,197,294825,0.0-6.0-137.0,go_nogo_deval,463,,<img class = center src='/static/experiments/go_nogo_deval/images/purple_circle.png'></img>,32,850,test,purple_circle,go1,32,45,0,,,,,,,-1,-1,1400,0,ITI,poldrack-single-stim,198,296227,0.0-6.0-138.0,go_nogo_deval,463,,<div></div>,32,1400,test,,,,,,,,,,,,-1,-1,500,0,fixation,poldrack-single-stim,199,296727,0.0-6.0-139.0,go_nogo_deval,463,,<div class = centerbox><div class = fixation>+</div></div>,none,500,test,,,,,,,,,,,,536,32,850,0,stim,poldrack-single-stim,200,297579,0.0-6.0-140.0,go_nogo_deval,463,,<img class = center src='/static/experiments/go_nogo_deval/images/purple_circle.png'></img>,32,850,test,purple_circle,go1,32,46,0,,,,,,,-1,-1,1400,0,ITI,poldrack-single-stim,201,298980,0.0-6.0-141.0,go_nogo_deval,463,,<div></div>,32,1400,test,,,,,,,,,,,,-1,-1,500,0,fixation,poldrack-single-stim,202,299482,0.0-6.0-142.0,go_nogo_deval,463,,<div class = centerbox><div class = fixation>+</div></div>,none,500,test,,,,,,,,,,,,-1,-1,850,0,stim,poldrack-single-stim,203,300332,0.0-6.0-143.0,go_nogo_deval,463,,<img class = center src='/static/experiments/go_nogo_deval/images/green_triangle.png'></img>,32,850,test,green_triangle,nogo1,-1,47,0,,,,,,,-1,-1,1400,0,ITI,poldrack-single-stim,204,301734,0.0-6.0-144.0,go_nogo_deval,463,,<div></div>,32,1400,test,,,,,,,,,,,,10038,13,10038,0,practice-no-stop-feedback,poldrack-single-stim,205,311777,0.0-6.1-0.1,go_nogo_deval,463,,"<div class = centerbox><p class = block-text><br>Please take this time to read your feedback and to take a short break! Press enter to continue</p><p class = block-text><strong>Average reaction time:  508 ms. Accuracy: 96%</strong></p><p class = block-text><strong>You have been responding too slowly, please respond to each shape (circle, triangle, rhombus, pentagon) as quickly and as accurately as possible.</strong></p><p class = block-text>We have detected a number of trials that <strong>required no response</strong>, where a response was made.  Please <strong>ensure that you do not respond </strong>to shapes that require no response</p></div>",13,10038,,,,,,,,,,,,,-1,-1,500,0,fixation,poldrack-single-stim,206,312278,0.0-6.1-1.1,go_nogo_deval,463,,<div class = centerbox><div class = fixation>+</div></div>,none,500,test,,,,,,,,,,,,-1,-1,850,0,stim,poldrack-single-stim,207,313130,0.0-6.1-2.1,go_nogo_deval,463,,<img class = center src='/static/experiments/go_nogo_deval/images/red_rhombus.png'></img>,32,850,test,red_rhombus,nogo2,-1,0,1,,,,,,,-1,-1,1400,0,ITI,poldrack-single-stim,208,314531,0.0-6.1-3.1,go_nogo_deval,463,,<div></div>,32,1400,test,,,,,,,,,,,,-1,-1,500,0,fixation,poldrack-single-stim,209,315032,0.0-6.1-4.1,go_nogo_deval,463,,<div class = centerbox><div class = fixation>+</div></div>,none,500,test,,,,,,,,,,,,444,32,850,0,stim,poldrack-single-stim,210,315883,0.0-6.1-5.1,go_nogo_deval,463,,<img class = center src='/static/experiments/go_nogo_deval/images/purple_circle.png'></img>,32,850,test,purple_circle,go1,32,1,1,,,,,,,-1,-1,1400,0,ITI,poldrack-single-stim,211,317285,0.0-6.1-6.1,go_nogo_deval,463,,<div></div>,32,1400,test,,,,,,,,,,,,-1,-1,500,0,fixation,poldrack-single-stim,212,317787,0.0-6.1-7.1,go_nogo_deval,463,,<div class = centerbox><div class = fixation>+</div></div>,none,500,test,,,,,,,,,,,,-1,-1,850,0,stim,poldrack-single-stim,213,318639,0.0-6.1-8.1,go_nogo_deval,463,,<img class = center src='/static/experiments/go_nogo_deval/images/green_triangle.png'></img>,32,850,test,green_triangle,nogo1,-1,2,1,,,,,,,-1,-1,1400,0,ITI,poldrack-single-stim,214,320041,0.0-6.1-9.1,go_nogo_deval,463,,<div></div>,32,1400,test,,,,,,,,,,,,-1,-1,500,0,fixation,poldrack-single-stim,215,320543,0.0-6.1-10.1,go_nogo_deval,463,,<div class = centerbox><div class = fixation>+</div></div>,none,500,test,,,,,,,,,,,,447,32,850,0,stim,poldrack-single-stim,216,321394,0.0-6.1-11.1,go_nogo_deval,463,,<img class = center src='/static/experiments/go_nogo_deval/images/blue_pentagon.png'></img>,32,850,test,blue_pentagon,go2,32,3,1,,,,,,,-1,-1,1400,0,ITI,poldrack-single-stim,217,322796,0.0-6.1-12.1,go_nogo_deval,463,,<div></div>,32,1400,test,,,,,,,,,,,,-1,-1,500,0,fixation,poldrack-single-stim,218,323298,0.0-6.1-13.1,go_nogo_deval,463,,<div class = centerbox><div class = fixation>+</div></div>,none,500,test,,,,,,,,,,,,494,32,850,0,stim,poldrack-single-stim,219,324149,0.0-6.1-14.1,go_nogo_deval,463,,<img class = center src='/static/experiments/go_nogo_deval/images/blue_pentagon.png'></img>,32,850,test,blue_pentagon,go2,32,4,1,,,,,,,-1,-1,1400,0,ITI,poldrack-single-stim,220,325551,0.0-6.1-15.1,go_nogo_deval,463,,<div></div>,32,1400,test,,,,,,,,,,,,-1,-1,500,0,fixation,poldrack-single-stim,221,326052,0.0-6.1-16.1,go_nogo_deval,463,,<div class = centerbox><div class = fixation>+</div></div>,none,500,test,,,,,,,,,,,,395,32,850,0,stim,poldrack-single-stim,222,326903,0.0-6.1-17.1,go_nogo_deval,463,,<img class = center src='/static/experiments/go_nogo_deval/images/blue_pentagon.png'></img>,32,850,test,blue_pentagon,go2,32,5,1,,,,,,,-1,-1,1400,0,ITI,poldrack-single-stim,223,328305,0.0-6.1-18.1,go_nogo_deval,463,,<div></div>,32,1400,test,,,,,,,,,,,,-1,-1,500,0,fixation,poldrack-single-stim,224,328807,0.0-6.1-19.1,go_nogo_deval,463,,<div class = centerbox><div class = fixation>+</div></div>,none,500,test,,,,,,,,,,,,474,32,850,0,stim,poldrack-single-stim,225,329658,0.0-6.1-20.1,go_nogo_deval,463,,<img class = center src='/static/experiments/go_nogo_deval/images/purple_circle.png'></img>,32,850,test,purple_circle,go1,32,6,1,,,,,,,-1,-1,1400,0,ITI,poldrack-single-stim,226,331059,0.0-6.1-21.1,go_nogo_deval,463,,<div></div>,32,1400,test,,,,,,,,,,,,-1,-1,500,0,fixation,poldrack-single-stim,227,331561,0.0-6.1-22.1,go_nogo_deval,463,,<div class = centerbox><div class = fixation>+</div></div>,none,500,test,,,,,,,,,,,,342,32,850,0,stim,poldrack-single-stim,228,332412,0.0-6.1-23.1,go_nogo_deval,463,,<img class = center src='/static/experiments/go_nogo_deval/images/purple_circle.png'></img>,32,850,test,purple_circle,go1,32,7,1,,,,,,,-1,-1,1400,0,ITI,poldrack-single-stim,229,333814,0.0-6.1-24.1,go_nogo_deval,463,,<div></div>,32,1400,test,,,,,,,,,,,,-1,-1,500,0,fixation,poldrack-single-stim,230,334316,0.0-6.1-25.1,go_nogo_deval,463,,<div class = centerbox><div class = fixation>+</div></div>,none,500,test,,,,,,,,,,,,434,32,850,0,stim,poldrack-single-stim,231,335166,0.0-6.1-26.1,go_nogo_deval,463,,<img class = center src='/static/experiments/go_nogo_deval/images/blue_pentagon.png'></img>,32,850,test,blue_pentagon,go2,32,8,1,,,,,,,-1,-1,1400,0,ITI,poldrack-single-stim,232,336568,0.0-6.1-27.1,go_nogo_deval,463,,<div></div>,32,1400,test,,,,,,,,,,,,-1,-1,500,0,fixation,poldrack-single-stim,233,337070,0.0-6.1-28.1,go_nogo_deval,463,,<div class = centerbox><div class = fixation>+</div></div>,none,500,test,,,,,,,,,,,,-1,-1,850,0,stim,poldrack-single-stim,234,337922,0.0-6.1-29.1,go_nogo_deval,463,,<img class = center src='/static/experiments/go_nogo_deval/images/red_rhombus.png'></img>,32,850,test,red_rhombus,nogo2,-1,9,1,,,,,,,-1,-1,1400,0,ITI,poldrack-single-stim,235,339324,0.0-6.1-30.1,go_nogo_deval,463,,<div></div>,32,1400,test,,,,,,,,,,,,-1,-1,500,0,fixation,poldrack-single-stim,236,339826,0.0-6.1-31.1,go_nogo_deval,463,,<div class = centerbox><div class = fixation>+</div></div>,none,500,test,,,,,,,,,,,,436,32,850,0,stim,poldrack-single-stim,237,340678,0.0-6.1-32.1,go_nogo_deval,463,,<img class = center src='/static/experiments/go_nogo_deval/images/purple_circle.png'></img>,32,850,test,purple_circle,go1,32,10,1,,,,,,,-1,-1,1400,0,ITI,poldrack-single-stim,238,342079,0.0-6.1-33.1,go_nogo_deval,463,,<div></div>,32,1400,test,,,,,,,,,,,,-1,-1,500,0,fixation,poldrack-single-stim,239,342579,0.0-6.1-34.1,go_nogo_deval,463,,<div class = centerbox><div class = fixation>+</div></div>,none,500,test,,,,,,,,,,,,-1,-1,850,0,stim,poldrack-single-stim,240,343431,0.0-6.1-35.1,go_nogo_deval,463,,<img class = center src='/static/experiments/go_nogo_deval/images/green_triangle.png'></img>,32,850,test,green_triangle,nogo1,-1,11,1,,,,,,,-1,-1,1400,0,ITI,poldrack-single-stim,241,344833,0.0-6.1-36.1,go_nogo_deval,463,,<div></div>,32,1400,test,,,,,,,,,,,,-1,-1,500,0,fixation,poldrack-single-stim,242,345335,0.0-6.1-37.1,go_nogo_deval,463,,<div class = centerbox><div class = fixation>+</div></div>,none,500,test,,,,,,,,,,,,485,32,850,0,stim,poldrack-single-stim,243,346187,0.0-6.1-38.1,go_nogo_deval,463,,<img class = center src='/static/experiments/go_nogo_deval/images/blue_pentagon.png'></img>,32,850,test,blue_pentagon,go2,32,12,1,,,,,,,-1,-1,1400,0,ITI,poldrack-single-stim,244,347588,0.0-6.1-39.1,go_nogo_deval,463,,<div></div>,32,1400,test,,,,,,,,,,,,-1,-1,500,0,fixation,poldrack-single-stim,245,348090,0.0-6.1-40.1,go_nogo_deval,463,,<div class = centerbox><div class = fixation>+</div></div>,none,500,test,,,,,,,,,,,,586,32,850,0,stim,poldrack-single-stim,246,348941,0.0-6.1-41.1,go_nogo_deval,463,,<img class = center src='/static/experiments/go_nogo_deval/images/purple_circle.png'></img>,32,850,test,purple_circle,go1,32,13,1,,,,,,,-1,-1,1400,0,ITI,poldrack-single-stim,247,350343,0.0-6.1-42.1,go_nogo_deval,463,,<div></div>,32,1400,test,,,,,,,,,,,,-1,-1,500,0,fixation,poldrack-single-stim,248,350844,0.0-6.1-43.1,go_nogo_deval,463,,<div class = centerbox><div class = fixation>+</div></div>,none,500,test,,,,,,,,,,,,464,32,850,0,stim,poldrack-single-stim,249,351696,0.0-6.1-44.1,go_nogo_deval,463,,<img class = center src='/static/experiments/go_nogo_deval/images/blue_pentagon.png'></img>,32,850,test,blue_pentagon,go2,32,14,1,,,,,,,-1,-1,1400,0,ITI,poldrack-single-stim,250,353097,0.0-6.1-45.1,go_nogo_deval,463,,<div></div>,32,1400,test,,,,,,,,,,,,-1,-1,500,0,fixation,poldrack-single-stim,251,353599,0.0-6.1-46.1,go_nogo_deval,463,,<div class = centerbox><div class = fixation>+</div></div>,none,500,test,,,,,,,,,,,,467,32,850,0,stim,poldrack-single-stim,252,354450,0.0-6.1-47.1,go_nogo_deval,463,,<img class = center src='/static/experiments/go_nogo_deval/images/blue_pentagon.png'></img>,32,850,test,blue_pentagon,go2,32,15,1,,,,,,,-1,-1,1400,0,ITI,poldrack-single-stim,253,355851,0.0-6.1-48.1,go_nogo_deval,463,,<div></div>,32,1400,test,,,,,,,,,,,,-1,-1,500,0,fixation,poldrack-single-stim,254,356353,0.0-6.1-49.1,go_nogo_deval,463,,<div class = centerbox><div class = fixation>+</div></div>,none,500,test,,,,,,,,,,,,378,32,850,0,stim,poldrack-single-stim,255,357205,0.0-6.1-50.1,go_nogo_deval,463,,<img class = center src='/static/experiments/go_nogo_deval/images/blue_pentagon.png'></img>,32,850,test,blue_pentagon,go2,32,16,1,,,,,,,-1,-1,1400,0,ITI,poldrack-single-stim,256,358606,0.0-6.1-51.1,go_nogo_deval,463,,<div></div>,32,1400,test,,,,,,,,,,,,-1,-1,500,0,fixation,poldrack-single-stim,257,359107,0.0-6.1-52.1,go_nogo_deval,463,,<div class = centerbox><div class = fixation>+</div></div>,none,500,test,,,,,,,,,,,,404,32,850,0,stim,poldrack-single-stim,258,359958,0.0-6.1-53.1,go_nogo_deval,463,,<img class = center src='/static/experiments/go_nogo_deval/images/green_triangle.png'></img>,32,850,test,green_triangle,nogo1,-1,17,1,,,,,,,-1,-1,1400,0,ITI,poldrack-single-stim,259,361360,0.0-6.1-54.1,go_nogo_deval,463,,<div></div>,32,1400,test,,,,,,,,,,,,-1,-1,500,0,fixation,poldrack-single-stim,260,361862,0.0-6.1-55.1,go_nogo_deval,463,,<div class = centerbox><div class = fixation>+</div></div>,none,500,test,,,,,,,,,,,,-1,-1,850,0,stim,poldrack-single-stim,261,362714,0.0-6.1-56.1,go_nogo_deval,463,,<img class = center src='/static/experiments/go_nogo_deval/images/green_triangle.png'></img>,32,850,test,green_triangle,nogo1,-1,18,1,,,,,,,-1,-1,1400,0,ITI,poldrack-single-stim,262,364115,0.0-6.1-57.1,go_nogo_deval,463,,<div></div>,32,1400,test,,,,,,,,,,,,-1,-1,500,0,fixation,poldrack-single-stim,263,364616,0.0-6.1-58.1,go_nogo_deval,463,,<div class = centerbox><div class = fixation>+</div></div>,none,500,test,,,,,,,,,,,,-1,-1,850,0,stim,poldrack-single-stim,264,365468,0.0-6.1-59.1,go_nogo_deval,463,,<img class = center src='/static/experiments/go_nogo_deval/images/red_rhombus.png'></img>,32,850,test,red_rhombus,nogo2,-1,19,1,,,,,,,-1,-1,1400,0,ITI,poldrack-single-stim,265,366870,0.0-6.1-60.1,go_nogo_deval,463,,<div></div>,32,1400,test,,,,,,,,,,,,-1,-1,500,0,fixation,poldrack-single-stim,266,367371,0.0-6.1-61.1,go_nogo_deval,463,,<div class = centerbox><div class = fixation>+</div></div>,none,500,test,,,,,,,,,,,,-1,-1,850,0,stim,poldrack-single-stim,267,368223,0.0-6.1-62.1,go_nogo_deval,463,,<img class = center src='/static/experiments/go_nogo_deval/images/green_triangle.png'></img>,32,850,test,green_triangle,nogo1,-1,20,1,,,,,,,-1,-1,1400,0,ITI,poldrack-single-stim,268,369625,0.0-6.1-63.1,go_nogo_deval,463,,<div></div>,32,1400,test,,,,,,,,,,,,-1,-1,500,0,fixation,poldrack-single-stim,269,370126,0.0-6.1-64.1,go_nogo_deval,463,,<div class = centerbox><div class = fixation>+</div></div>,none,500,test,,,,,,,,,,,,-1,-1,850,0,stim,poldrack-single-stim,270,370978,0.0-6.1-65.1,go_nogo_deval,463,,<img class = center src='/static/experiments/go_nogo_deval/images/blue_pentagon.png'></img>,32,850,test,blue_pentagon,go2,32,21,1,,,,,,,-1,-1,1400,0,ITI,poldrack-single-stim,271,372380,0.0-6.1-66.1,go_nogo_deval,463,,<div></div>,32,1400,test,,,,,,,,,,,,-1,-1,500,0,fixation,poldrack-single-stim,272,372882,0.0-6.1-67.1,go_nogo_deval,463,,<div class = centerbox><div class = fixation>+</div></div>,none,500,test,,,,,,,,,,,,568,32,850,0,stim,poldrack-single-stim,273,373733,0.0-6.1-68.1,go_nogo_deval,463,,<img class = center src='/static/experiments/go_nogo_deval/images/purple_circle.png'></img>,32,850,test,purple_circle,go1,32,22,1,,,,,,,-1,-1,1400,0,ITI,poldrack-single-stim,274,375135,0.0-6.1-69.1,go_nogo_deval,463,,<div></div>,32,1400,test,,,,,,,,,,,,-1,-1,500,0,fixation,poldrack-single-stim,275,375636,0.0-6.1-70.1,go_nogo_deval,463,,<div class = centerbox><div class = fixation>+</div></div>,none,500,test,,,,,,,,,,,,502,32,850,0,stim,poldrack-single-stim,276,376488,0.0-6.1-71.1,go_nogo_deval,463,,<img class = center src='/static/experiments/go_nogo_deval/images/blue_pentagon.png'></img>,32,850,test,blue_pentagon,go2,32,23,1,,,,,,,-1,-1,1400,0,ITI,poldrack-single-stim,277,377889,0.0-6.1-72.1,go_nogo_deval,463,,<div></div>,32,1400,test,,,,,,,,,,,,-1,-1,500,0,fixation,poldrack-single-stim,278,378391,0.0-6.1-73.1,go_nogo_deval,463,,<div class = centerbox><div class = fixation>+</div></div>,none,500,test,,,,,,,,,,,,436,32,850,0,stim,poldrack-single-stim,279,379242,0.0-6.1-74.1,go_nogo_deval,463,,<img class = center src='/static/experiments/go_nogo_deval/images/blue_pentagon.png'></img>,32,850,test,blue_pentagon,go2,32,24,1,,,,,,,-1,-1,1400,0,ITI,poldrack-single-stim,280,380644,0.0-6.1-75.1,go_nogo_deval,463,,<div></div>,32,1400,test,,,,,,,,,,,,-1,-1,500,0,fixation,poldrack-single-stim,281,381145,0.0-6.1-76.1,go_nogo_deval,463,,<div class = centerbox><div class = fixation>+</div></div>,none,500,test,,,,,,,,,,,,561,32,850,0,stim,poldrack-single-stim,282,381997,0.0-6.1-77.1,go_nogo_deval,463,,<img class = center src='/static/experiments/go_nogo_deval/images/blue_pentagon.png'></img>,32,850,test,blue_pentagon,go2,32,25,1,,,,,,,-1,-1,1400,0,ITI,poldrack-single-stim,283,383398,0.0-6.1-78.1,go_nogo_deval,463,,<div></div>,32,1400,test,,,,,,,,,,,,-1,-1,500,0,fixation,poldrack-single-stim,284,383900,0.0-6.1-79.1,go_nogo_deval,463,,<div class = centerbox><div class = fixation>+</div></div>,none,500,test,,,,,,,,,,,,-1,-1,850,0,stim,poldrack-single-stim,285,384750,0.0-6.1-80.1,go_nogo_deval,463,,<img class = center src='/static/experiments/go_nogo_deval/images/red_rhombus.png'></img>,32,850,test,red_rhombus,nogo2,-1,26,1,,,,,,,-1,-1,1400,0,ITI,poldrack-single-stim,286,386152,0.0-6.1-81.1,go_nogo_deval,463,,<div></div>,32,1400,test,,,,,,,,,,,,-1,-1,500,0,fixation,poldrack-single-stim,287,386653,0.0-6.1-82.1,go_nogo_deval,463,,<div class = centerbox><div class = fixation>+</div></div>,none,500,test,,,,,,,,,,,,645,32,850,0,stim,poldrack-single-stim,288,387505,0.0-6.1-83.1,go_nogo_deval,463,,<img class = center src='/static/experiments/go_nogo_deval/images/purple_circle.png'></img>,32,850,test,purple_circle,go1,32,27,1,,,,,,,-1,-1,1400,0,ITI,poldrack-single-stim,289,388906,0.0-6.1-84.1,go_nogo_deval,463,,<div></div>,32,1400,test,,,,,,,,,,,,-1,-1,500,0,fixation,poldrack-single-stim,290,389408,0.0-6.1-85.1,go_nogo_deval,463,,<div class = centerbox><div class = fixation>+</div></div>,none,500,test,,,,,,,,,,,,-1,-1,850,0,stim,poldrack-single-stim,291,390259,0.0-6.1-86.1,go_nogo_deval,463,,<img class = center src='/static/experiments/go_nogo_deval/images/red_rhombus.png'></img>,32,850,test,red_rhombus,nogo2,-1,28,1,,,,,,,-1,-1,1400,0,ITI,poldrack-single-stim,292,391661,0.0-6.1-87.1,go_nogo_deval,463,,<div></div>,32,1400,test,,,,,,,,,,,,-1,-1,500,0,fixation,poldrack-single-stim,293,392163,0.0-6.1-88.1,go_nogo_deval,463,,<div class = centerbox><div class = fixation>+</div></div>,none,500,test,,,,,,,,,,,,-1,-1,850,0,stim,poldrack-single-stim,294,393015,0.0-6.1-89.1,go_nogo_deval,463,,<img class = center src='/static/experiments/go_nogo_deval/images/green_triangle.png'></img>,32,850,test,green_triangle,nogo1,-1,29,1,,,,,,,-1,-1,1400,0,ITI,poldrack-single-stim,295,394415,0.0-6.1-90.1,go_nogo_deval,463,,<div></div>,32,1400,test,,,,,,,,,,,,-1,-1,500,0,fixation,poldrack-single-stim,296,394917,0.0-6.1-91.1,go_nogo_deval,463,,<div class = centerbox><div class = fixation>+</div></div>,none,500,test,,,,,,,,,,,,695,32,850,0,stim,poldrack-single-stim,297,395769,0.0-6.1-92.1,go_nogo_deval,463,,<img class = center src='/static/experiments/go_nogo_deval/images/purple_circle.png'></img>,32,850,test,purple_circle,go1,32,30,1,,,,,,,-1,-1,1400,0,ITI,poldrack-single-stim,298,397170,0.0-6.1-93.1,go_nogo_deval,463,,<div></div>,32,1400,test,,,,,,,,,,,,-1,-1,500,0,fixation,poldrack-single-stim,299,397671,0.0-6.1-94.1,go_nogo_deval,463,,<div class = centerbox><div class = fixation>+</div></div>,none,500,test,,,,,,,,,,,,-1,-1,850,0,stim,poldrack-single-stim,300,398523,0.0-6.1-95.1,go_nogo_deval,463,,<img class = center src='/static/experiments/go_nogo_deval/images/green_triangle.png'></img>,32,850,test,green_triangle,nogo1,-1,31,1,,,,,,,-1,-1,1400,0,ITI,poldrack-single-stim,301,399924,0.0-6.1-96.1,go_nogo_deval,463,,<div></div>,32,1400,test,,,,,,,,,,,,-1,-1,500,0,fixation,poldrack-single-stim,302,400426,0.0-6.1-97.1,go_nogo_deval,463,,<div class = centerbox><div class = fixation>+</div></div>,none,500,test,,,,,,,,,,,,474,32,850,0,stim,poldrack-single-stim,303,401277,0.0-6.1-98.1,go_nogo_deval,463,,<img class = center src='/static/experiments/go_nogo_deval/images/purple_circle.png'></img>,32,850,test,purple_circle,go1,32,32,1,,,,,,,-1,-1,1400,0,ITI,poldrack-single-stim,304,402679,0.0-6.1-99.1,go_nogo_deval,463,,<div></div>,32,1400,test,,,,,,,,,,,,-1,-1,500,0,fixation,poldrack-single-stim,305,403180,0.0-6.1-100.1,go_nogo_deval,463,,<div class = centerbox><div class = fixation>+</div></div>,none,500,test,,,,,,,,,,,,418,32,850,0,stim,poldrack-single-stim,306,404032,0.0-6.1-101.1,go_nogo_deval,463,,<img class = center src='/static/experiments/go_nogo_deval/images/purple_circle.png'></img>,32,850,test,purple_circle,go1,32,33,1,,,,,,,-1,-1,1400,0,ITI,poldrack-single-stim,307,405434,0.0-6.1-102.1,go_nogo_deval,463,,<div></div>,32,1400,test,,,,,,,,,,,,-1,-1,500,0,fixation,poldrack-single-stim,308,405936,0.0-6.1-103.1,go_nogo_deval,463,,<div class = centerbox><div class = fixation>+</div></div>,none,500,test,,,,,,,,,,,,588,32,850,0,stim,poldrack-single-stim,309,406788,0.0-6.1-104.1,go_nogo_deval,463,,<img class = center src='/static/experiments/go_nogo_deval/images/blue_pentagon.png'></img>,32,850,test,blue_pentagon,go2,32,34,1,,,,,,,-1,-1,1400,0,ITI,poldrack-single-stim,310,408189,0.0-6.1-105.1,go_nogo_deval,463,,<div></div>,32,1400,test,,,,,,,,,,,,-1,-1,500,0,fixation,poldrack-single-stim,311,408691,0.0-6.1-106.1,go_nogo_deval,463,,<div class = centerbox><div class = fixation>+</div></div>,none,500,test,,,,,,,,,,,,634,32,850,0,stim,poldrack-single-stim,312,409542,0.0-6.1-107.1,go_nogo_deval,463,,<img class = center src='/static/experiments/go_nogo_deval/images/purple_circle.png'></img>,32,850,test,purple_circle,go1,32,35,1,,,,,,,-1,-1,1400,0,ITI,poldrack-single-stim,313,410944,0.0-6.1-108.1,go_nogo_deval,463,,<div></div>,32,1400,test,,,,,,,,,,,,-1,-1,500,0,fixation,poldrack-single-stim,314,411446,0.0-6.1-109.1,go_nogo_deval,463,,<div class = centerbox><div class = fixation>+</div></div>,none,500,test,,,,,,,,,,,,468,32,850,0,stim,poldrack-single-stim,315,412298,0.0-6.1-110.1,go_nogo_deval,463,,<img class = center src='/static/experiments/go_nogo_deval/images/purple_circle.png'></img>,32,850,test,purple_circle,go1,32,36,1,,,,,,,-1,-1,1400,0,ITI,poldrack-single-stim,316,413699,0.0-6.1-111.1,go_nogo_deval,463,,<div></div>,32,1400,test,,,,,,,,,,,,-1,-1,500,0,fixation,poldrack-single-stim,317,414200,0.0-6.1-112.1,go_nogo_deval,463,,<div class = centerbox><div class = fixation>+</div></div>,none,500,test,,,,,,,,,,,,446,32,850,0,stim,poldrack-single-stim,318,415052,0.0-6.1-113.1,go_nogo_deval,463,,<img class = center src='/static/experiments/go_nogo_deval/images/purple_circle.png'></img>,32,850,test,purple_circle,go1,32,37,1,,,,,,,-1,-1,1400,0,ITI,poldrack-single-stim,319,416454,0.0-6.1-114.1,go_nogo_deval,463,,<div></div>,32,1400,test,,,,,,,,,,,,-1,-1,500,0,fixation,poldrack-single-stim,320,416955,0.0-6.1-115.1,go_nogo_deval,463,,<div class = centerbox><div class = fixation>+</div></div>,none,500,test,,,,,,,,,,,,291,32,850,0,stim,poldrack-single-stim,321,417807,0.0-6.1-116.1,go_nogo_deval,463,,<img class = center src='/static/experiments/go_nogo_deval/images/purple_circle.png'></img>,32,850,test,purple_circle,go1,32,38,1,,,,,,,-1,-1,1400,0,ITI,poldrack-single-stim,322,419207,0.0-6.1-117.1,go_nogo_deval,463,,<div></div>,32,1400,test,,,,,,,,,,,,-1,-1,500,0,fixation,poldrack-single-stim,323,419708,0.0-6.1-118.1,go_nogo_deval,463,,<div class = centerbox><div class = fixation>+</div></div>,none,500,test,,,,,,,,,,,,-1,-1,850,0,stim,poldrack-single-stim,324,420560,0.0-6.1-119.1,go_nogo_deval,463,,<img class = center src='/static/experiments/go_nogo_deval/images/green_triangle.png'></img>,32,850,test,green_triangle,nogo1,-1,39,1,,,,,,,-1,-1,1400,0,ITI,poldrack-single-stim,325,421961,0.0-6.1-120.1,go_nogo_deval,463,,<div></div>,32,1400,test,,,,,,,,,,,,-1,-1,500,0,fixation,poldrack-single-stim,326,422462,0.0-6.1-121.1,go_nogo_deval,463,,<div class = centerbox><div class = fixation>+</div></div>,none,500,test,,,,,,,,,,,,-1,-1,850,0,stim,poldrack-single-stim,327,423314,0.0-6.1-122.1,go_nogo_deval,463,,<img class = center src='/static/experiments/go_nogo_deval/images/red_rhombus.png'></img>,32,850,test,red_rhombus,nogo2,-1,40,1,,,,,,,-1,-1,1400,0,ITI,poldrack-single-stim,328,424716,0.0-6.1-123.1,go_nogo_deval,463,,<div></div>,32,1400,test,,,,,,,,,,,,-1,-1,500,0,fixation,poldrack-single-stim,329,425218,0.0-6.1-124.1,go_nogo_deval,463,,<div class = centerbox><div class = fixation>+</div></div>,none,500,test,,,,,,,,,,,,-1,-1,850,0,stim,poldrack-single-stim,330,426068,0.0-6.1-125.1,go_nogo_deval,463,,<img class = center src='/static/experiments/go_nogo_deval/images/red_rhombus.png'></img>,32,850,test,red_rhombus,nogo2,-1,41,1,,,,,,,-1,-1,1400,0,ITI,poldrack-single-stim,331,427471,0.0-6.1-126.1,go_nogo_deval,463,,<div></div>,32,1400,test,,,,,,,,,,,,-1,-1,500,0,fixation,poldrack-single-stim,332,427973,0.0-6.1-127.1,go_nogo_deval,463,,<div class = centerbox><div class = fixation>+</div></div>,none,500,test,,,,,,,,,,,,-1,-1,850,0,stim,poldrack-single-stim,333,428825,0.0-6.1-128.1,go_nogo_deval,463,,<img class = center src='/static/experiments/go_nogo_deval/images/red_rhombus.png'></img>,32,850,test,red_rhombus,nogo2,-1,42,1,,,,,,,-1,-1,1400,0,ITI,poldrack-single-stim,334,430226,0.0-6.1-129.1,go_nogo_deval,463,,<div></div>,32,1400,test,,,,,,,,,,,,-1,-1,500,0,fixation,poldrack-single-stim,335,430728,0.0-6.1-130.1,go_nogo_deval,463,,<div class = centerbox><div class = fixation>+</div></div>,none,500,test,,,,,,,,,,,,479,32,850,0,stim,poldrack-single-stim,336,431580,0.0-6.1-131.1,go_nogo_deval,463,,<img class = center src='/static/experiments/go_nogo_deval/images/blue_pentagon.png'></img>,32,850,test,blue_pentagon,go2,32,43,1,,,,,,,-1,-1,1400,0,ITI,poldrack-single-stim,337,432981,0.0-6.1-132.1,go_nogo_deval,463,,<div></div>,32,1400,test,,,,,,,,,,,,-1,-1,500,0,fixation,poldrack-single-stim,338,433482,0.0-6.1-133.1,go_nogo_deval,463,,<div class = centerbox><div class = fixation>+</div></div>,none,500,test,,,,,,,,,,,,503,32,850,0,stim,poldrack-single-stim,339,434334,0.0-6.1-134.1,go_nogo_deval,463,,<img class = center src='/static/experiments/go_nogo_deval/images/blue_pentagon.png'></img>,32,850,test,blue_pentagon,go2,32,44,1,,,,,,,-1,-1,1400,0,ITI,poldrack-single-stim,340,435736,0.0-6.1-135.1,go_nogo_deval,463,,<div></div>,32,1400,test,,,,,,,,,,,,-1,-1,500,0,fixation,poldrack-single-stim,341,436238,0.0-6.1-136.1,go_nogo_deval,463,,<div class = centerbox><div class = fixation>+</div></div>,none,500,test,,,,,,,,,,,,549,32,850,0,stim,poldrack-single-stim,342,437090,0.0-6.1-137.1,go_nogo_deval,463,,<img class = center src='/static/experiments/go_nogo_deval/images/purple_circle.png'></img>,32,850,test,purple_circle,go1,32,45,1,,,,,,,-1,-1,1400,0,ITI,poldrack-single-stim,343,438490,0.0-6.1-138.1,go_nogo_deval,463,,<div></div>,32,1400,test,,,,,,,,,,,,-1,-1,500,0,fixation,poldrack-single-stim,344,438992,0.0-6.1-139.1,go_nogo_deval,463,,<div class = centerbox><div class = fixation>+</div></div>,none,500,test,,,,,,,,,,,,394,32,850,0,stim,poldrack-single-stim,345,439843,0.0-6.1-140.1,go_nogo_deval,463,,<img class = center src='/static/experiments/go_nogo_deval/images/blue_pentagon.png'></img>,32,850,test,blue_pentagon,go2,32,46,1,,,,,,,-1,-1,1400,0,ITI,poldrack-single-stim,346,441245,0.0-6.1-141.1,go_nogo_deval,463,,<div></div>,32,1400,test,,,,,,,,,,,,-1,-1,500,0,fixation,poldrack-single-stim,347,441747,0.0-6.1-142.1,go_nogo_deval,463,,<div class = centerbox><div class = fixation>+</div></div>,none,500,test,,,,,,,,,,,,531,32,850,0,stim,poldrack-single-stim,348,442598,0.0-6.1-143.1,go_nogo_deval,463,,<img class = center src='/static/experiments/go_nogo_deval/images/purple_circle.png'></img>,32,850,test,purple_circle,go1,32,47,1,,,,,,,-1,-1,1400,0,ITI,poldrack-single-stim,349,444000,0.0-6.1-144.1,go_nogo_deval,463,,<div></div>,32,1400,test,,,,,,,,,,,,3201,13,3201,0,practice-no-stop-feedback,poldrack-single-stim,350,447205,0.0-6.2-0.2,go_nogo_deval,463,,<div class = centerbox><p class = block-text><br>Please take this time to read your feedback and to take a short break! Press enter to continue</p><p class = block-text><strong>Average reaction time:  482 ms. Accuracy: 96%</strong></p></div>,13,3201,,,,,,,,,,,,,-1,-1,500,0,fixation,poldrack-single-stim,351,447707,0.0-6.2-1.2,go_nogo_deval,463,,<div class = centerbox><div class = fixation>+</div></div>,none,500,test,,,,,,,,,,,,-1,-1,850,0,stim,poldrack-single-stim,352,448558,0.0-6.2-2.2,go_nogo_deval,463,,<img class = center src='/static/experiments/go_nogo_deval/images/green_triangle.png'></img>,32,850,test,green_triangle,nogo1,-1,0,2,,,,,,,-1,-1,1400,0,ITI,poldrack-single-stim,353,449960,0.0-6.2-3.2,go_nogo_deval,463,,<div></div>,32,1400,test,,,,,,,,,,,,-1,-1,500,0,fixation,poldrack-single-stim,354,450462,0.0-6.2-4.2,go_nogo_deval,463,,<div class = centerbox><div class = fixation>+</div></div>,none,500,test,,,,,,,,,,,,-1,-1,850,0,stim,poldrack-single-stim,355,451313,0.0-6.2-5.2,go_nogo_deval,463,,<img class = center src='/static/experiments/go_nogo_deval/images/green_triangle.png'></img>,32,850,test,green_triangle,nogo1,-1,1,2,,,,,,,-1,-1,1400,0,ITI,poldrack-single-stim,356,452714,0.0-6.2-6.2,go_nogo_deval,463,,<div></div>,32,1400,test,,,,,,,,,,,,-1,-1,500,0,fixation,poldrack-single-stim,357,453216,0.0-6.2-7.2,go_nogo_deval,463,,<div class = centerbox><div class = fixation>+</div></div>,none,500,test,,,,,,,,,,,,391,32,850,0,stim,poldrack-single-stim,358,454068,0.0-6.2-8.2,go_nogo_deval,463,,<img class = center src='/static/experiments/go_nogo_deval/images/purple_circle.png'></img>,32,850,test,purple_circle,go1,32,2,2,,,,,,,-1,-1,1400,0,ITI,poldrack-single-stim,359,455469,0.0-6.2-9.2,go_nogo_deval,463,,<div></div>,32,1400,test,,,,,,,,,,,,-1,-1,500,0,fixation,poldrack-single-stim,360,455971,0.0-6.2-10.2,go_nogo_deval,463,,<div class = centerbox><div class = fixation>+</div></div>,none,500,test,,,,,,,,,,,,459,32,850,0,stim,poldrack-single-stim,361,456822,0.0-6.2-11.2,go_nogo_deval,463,,<img class = center src='/static/experiments/go_nogo_deval/images/blue_pentagon.png'></img>,32,850,test,blue_pentagon,go2,32,3,2,,,,,,,-1,-1,1400,0,ITI,poldrack-single-stim,362,458223,0.0-6.2-12.2,go_nogo_deval,463,,<div></div>,32,1400,test,,,,,,,,,,,,-1,-1,500,0,fixation,poldrack-single-stim,363,458725,0.0-6.2-13.2,go_nogo_deval,463,,<div class = centerbox><div class = fixation>+</div></div>,none,500,test,,,,,,,,,,,,415,32,850,0,stim,poldrack-single-stim,364,459577,0.0-6.2-14.2,go_nogo_deval,463,,<img class = center src='/static/experiments/go_nogo_deval/images/blue_pentagon.png'></img>,32,850,test,blue_pentagon,go2,32,4,2,,,,,,,-1,-1,1400,0,ITI,poldrack-single-stim,365,460978,0.0-6.2-15.2,go_nogo_deval,463,,<div></div>,32,1400,test,,,,,,,,,,,,-1,-1,500,0,fixation,poldrack-single-stim,366,461480,0.0-6.2-16.2,go_nogo_deval,463,,<div class = centerbox><div class = fixation>+</div></div>,none,500,test,,,,,,,,,,,,372,32,850,0,stim,poldrack-single-stim,367,462331,0.0-6.2-17.2,go_nogo_deval,463,,<img class = center src='/static/experiments/go_nogo_deval/images/purple_circle.png'></img>,32,850,test,purple_circle,go1,32,5,2,,,,,,,-1,-1,1400,0,ITI,poldrack-single-stim,368,463733,0.0-6.2-18.2,go_nogo_deval,463,,<div></div>,32,1400,test,,,,,,,,,,,,-1,-1,500,0,fixation,poldrack-single-stim,369,464234,0.0-6.2-19.2,go_nogo_deval,463,,<div class = centerbox><div class = fixation>+</div></div>,none,500,test,,,,,,,,,,,,-1,-1,850,0,stim,poldrack-single-stim,370,465086,0.0-6.2-20.2,go_nogo_deval,463,,<img class = center src='/static/experiments/go_nogo_deval/images/red_rhombus.png'></img>,32,850,test,red_rhombus,nogo2,-1,6,2,,,,,,,-1,-1,1400,0,ITI,poldrack-single-stim,371,466488,0.0-6.2-21.2,go_nogo_deval,463,,<div></div>,32,1400,test,,,,,,,,,,,,-1,-1,500,0,fixation,poldrack-single-stim,372,466990,0.0-6.2-22.2,go_nogo_deval,463,,<div class = centerbox><div class = fixation>+</div></div>,none,500,test,,,,,,,,,,,,511,32,850,0,stim,poldrack-single-stim,373,467842,0.0-6.2-23.2,go_nogo_deval,463,,<img class = center src='/static/experiments/go_nogo_deval/images/blue_pentagon.png'></img>,32,850,test,blue_pentagon,go2,32,7,2,,,,,,,-1,-1,1400,0,ITI,poldrack-single-stim,374,469244,0.0-6.2-24.2,go_nogo_deval,463,,<div></div>,32,1400,test,,,,,,,,,,,,-1,-1,500,0,fixation,poldrack-single-stim,375,469745,0.0-6.2-25.2,go_nogo_deval,463,,<div class = centerbox><div class = fixation>+</div></div>,none,500,test,,,,,,,,,,,,499,32,850,0,stim,poldrack-single-stim,376,470596,0.0-6.2-26.2,go_nogo_deval,463,,<img class = center src='/static/experiments/go_nogo_deval/images/purple_circle.png'></img>,32,850,test,purple_circle,go1,32,8,2,,,,,,,-1,-1,1400,0,ITI,poldrack-single-stim,377,471998,0.0-6.2-27.2,go_nogo_deval,463,,<div></div>,32,1400,test,,,,,,,,,,,,-1,-1,500,0,fixation,poldrack-single-stim,378,472500,0.0-6.2-28.2,go_nogo_deval,463,,<div class = centerbox><div class = fixation>+</div></div>,none,500,test,,,,,,,,,,,,400,32,850,0,stim,poldrack-single-stim,379,473352,0.0-6.2-29.2,go_nogo_deval,463,,<img class = center src='/static/experiments/go_nogo_deval/images/purple_circle.png'></img>,32,850,test,purple_circle,go1,32,9,2,,,,,,,-1,-1,1400,0,ITI,poldrack-single-stim,380,474753,0.0-6.2-30.2,go_nogo_deval,463,,<div></div>,32,1400,test,,,,,,,,,,,,-1,-1,500,0,fixation,poldrack-single-stim,381,475254,0.0-6.2-31.2,go_nogo_deval,463,,<div class = centerbox><div class = fixation>+</div></div>,none,500,test,,,,,,,,,,,,469,32,850,0,stim,poldrack-single-stim,382,476105,0.0-6.2-32.2,go_nogo_deval,463,,<img class = center src='/static/experiments/go_nogo_deval/images/purple_circle.png'></img>,32,850,test,purple_circle,go1,32,10,2,,,,,,,-1,-1,1400,0,ITI,poldrack-single-stim,383,477507,0.0-6.2-33.2,go_nogo_deval,463,,<div></div>,32,1400,test,,,,,,,,,,,,-1,-1,500,0,fixation,poldrack-single-stim,384,478008,0.0-6.2-34.2,go_nogo_deval,463,,<div class = centerbox><div class = fixation>+</div></div>,none,500,test,,,,,,,,,,,,439,32,850,0,stim,poldrack-single-stim,385,478859,0.0-6.2-35.2,go_nogo_deval,463,,<img class = center src='/static/experiments/go_nogo_deval/images/purple_circle.png'></img>,32,850,test,purple_circle,go1,32,11,2,,,,,,,-1,-1,1400,0,ITI,poldrack-single-stim,386,480261,0.0-6.2-36.2,go_nogo_deval,463,,<div></div>,32,1400,test,,,,,,,,,,,,-1,-1,500,0,fixation,poldrack-single-stim,387,480763,0.0-6.2-37.2,go_nogo_deval,463,,<div class = centerbox><div class = fixation>+</div></div>,none,500,test,,,,,,,,,,,,428,32,850,0,stim,poldrack-single-stim,388,481614,0.0-6.2-38.2,go_nogo_deval,463,,<img class = center src='/static/experiments/go_nogo_deval/images/purple_circle.png'></img>,32,850,test,purple_circle,go1,32,12,2,,,,,,,-1,-1,1400,0,ITI,poldrack-single-stim,389,483016,0.0-6.2-39.2,go_nogo_deval,463,,<div></div>,32,1400,test,,,,,,,,,,,,-1,-1,500,0,fixation,poldrack-single-stim,390,483517,0.0-6.2-40.2,go_nogo_deval,463,,<div class = centerbox><div class = fixation>+</div></div>,none,500,test,,,,,,,,,,,,-1,-1,850,0,stim,poldrack-single-stim,391,484369,0.0-6.2-41.2,go_nogo_deval,463,,<img class = center src='/static/experiments/go_nogo_deval/images/red_rhombus.png'></img>,32,850,test,red_rhombus,nogo2,-1,13,2,,,,,,,-1,-1,1400,0,ITI,poldrack-single-stim,392,485771,0.0-6.2-42.2,go_nogo_deval,463,,<div></div>,32,1400,test,,,,,,,,,,,,-1,-1,500,0,fixation,poldrack-single-stim,393,486273,0.0-6.2-43.2,go_nogo_deval,463,,<div class = centerbox><div class = fixation>+</div></div>,none,500,test,,,,,,,,,,,,-1,-1,850,0,stim,poldrack-single-stim,394,487125,0.0-6.2-44.2,go_nogo_deval,463,,<img class = center src='/static/experiments/go_nogo_deval/images/green_triangle.png'></img>,32,850,test,green_triangle,nogo1,-1,14,2,,,,,,,-1,-1,1400,0,ITI,poldrack-single-stim,395,488527,0.0-6.2-45.2,go_nogo_deval,463,,<div></div>,32,1400,test,,,,,,,,,,,,-1,-1,500,0,fixation,poldrack-single-stim,396,489029,0.0-6.2-46.2,go_nogo_deval,463,,<div class = centerbox><div class = fixation>+</div></div>,none,500,test,,,,,,,,,,,,-1,-1,850,0,stim,poldrack-single-stim,397,489881,0.0-6.2-47.2,go_nogo_deval,463,,<img class = center src='/static/experiments/go_nogo_deval/images/green_triangle.png'></img>,32,850,test,green_triangle,nogo1,-1,15,2,,,,,,,-1,-1,1400,0,ITI,poldrack-single-stim,398,491283,0.0-6.2-48.2,go_nogo_deval,463,,<div></div>,32,1400,test,,,,,,,,,,,,-1,-1,500,0,fixation,poldrack-single-stim,399,491784,0.0-6.2-49.2,go_nogo_deval,463,,<div class = centerbox><div class = fixation>+</div></div>,none,500,test,,,,,,,,,,,,388,32,850,0,stim,poldrack-single-stim,400,492635,0.0-6.2-50.2,go_nogo_deval,463,,<img class = center src='/static/experiments/go_nogo_deval/images/blue_pentagon.png'></img>,32,850,test,blue_pentagon,go2,32,16,2,,,,,,,-1,-1,1400,0,ITI,poldrack-single-stim,401,494036,0.0-6.2-51.2,go_nogo_deval,463,,<div></div>,32,1400,test,,,,,,,,,,,,-1,-1,500,0,fixation,poldrack-single-stim,402,494538,0.0-6.2-52.2,go_nogo_deval,463,,<div class = centerbox><div class = fixation>+</div></div>,none,500,test,,,,,,,,,,,,412,32,850,0,stim,poldrack-single-stim,403,495390,0.0-6.2-53.2,go_nogo_deval,463,,<img class = center src='/static/experiments/go_nogo_deval/images/blue_pentagon.png'></img>,32,850,test,blue_pentagon,go2,32,17,2,,,,,,,-1,-1,1400,0,ITI,poldrack-single-stim,404,496792,0.0-6.2-54.2,go_nogo_deval,463,,<div></div>,32,1400,test,,,,,,,,,,,,-1,-1,500,0,fixation,poldrack-single-stim,405,497292,0.0-6.2-55.2,go_nogo_deval,463,,<div class = centerbox><div class = fixation>+</div></div>,none,500,test,,,,,,,,,,,,-1,-1,850,0,stim,poldrack-single-stim,406,498144,0.0-6.2-56.2,go_nogo_deval,463,,<img class = center src='/static/experiments/go_nogo_deval/images/green_triangle.png'></img>,32,850,test,green_triangle,nogo1,-1,18,2,,,,,,,-1,-1,1400,0,ITI,poldrack-single-stim,407,499546,0.0-6.2-57.2,go_nogo_deval,463,,<div></div>,32,1400,test,,,,,,,,,,,,-1,-1,500,0,fixation,poldrack-single-stim,408,500048,0.0-6.2-58.2,go_nogo_deval,463,,<div class = centerbox><div class = fixation>+</div></div>,none,500,test,,,,,,,,,,,,415,32,850,0,stim,poldrack-single-stim,409,500900,0.0-6.2-59.2,go_nogo_deval,463,,<img class = center src='/static/experiments/go_nogo_deval/images/purple_circle.png'></img>,32,850,test,purple_circle,go1,32,19,2,,,,,,,-1,-1,1400,0,ITI,poldrack-single-stim,410,502301,0.0-6.2-60.2,go_nogo_deval,463,,<div></div>,32,1400,test,,,,,,,,,,,,-1,-1,500,0,fixation,poldrack-single-stim,411,502803,0.0-6.2-61.2,go_nogo_deval,463,,<div class = centerbox><div class = fixation>+</div></div>,none,500,test,,,,,,,,,,,,495,32,850,0,stim,poldrack-single-stim,412,503654,0.0-6.2-62.2,go_nogo_deval,463,,<img class = center src='/static/experiments/go_nogo_deval/images/blue_pentagon.png'></img>,32,850,test,blue_pentagon,go2,32,20,2,,,,,,,-1,-1,1400,0,ITI,poldrack-single-stim,413,505056,0.0-6.2-63.2,go_nogo_deval,463,,<div></div>,32,1400,test,,,,,,,,,,,,-1,-1,500,0,fixation,poldrack-single-stim,414,505558,0.0-6.2-64.2,go_nogo_deval,463,,<div class = centerbox><div class = fixation>+</div></div>,none,500,test,,,,,,,,,,,,462,32,850,0,stim,poldrack-single-stim,415,506409,0.0-6.2-65.2,go_nogo_deval,463,,<img class = center src='/static/experiments/go_nogo_deval/images/purple_circle.png'></img>,32,850,test,purple_circle,go1,32,21,2,,,,,,,-1,-1,1400,0,ITI,poldrack-single-stim,416,507810,0.0-6.2-66.2,go_nogo_deval,463,,<div></div>,32,1400,test,,,,,,,,,,,,-1,-1,500,0,fixation,poldrack-single-stim,417,508312,0.0-6.2-67.2,go_nogo_deval,463,,<div class = centerbox><div class = fixation>+</div></div>,none,500,test,,,,,,,,,,,,678,32,850,0,stim,poldrack-single-stim,418,509163,0.0-6.2-68.2,go_nogo_deval,463,,<img class = center src='/static/experiments/go_nogo_deval/images/blue_pentagon.png'></img>,32,850,test,blue_pentagon,go2,32,22,2,,,,,,,-1,-1,1400,0,ITI,poldrack-single-stim,419,510564,0.0-6.2-69.2,go_nogo_deval,463,,<div></div>,32,1400,test,,,,,,,,,,,,-1,-1,500,0,fixation,poldrack-single-stim,420,511065,0.0-6.2-70.2,go_nogo_deval,463,,<div class = centerbox><div class = fixation>+</div></div>,none,500,test,,,,,,,,,,,,558,32,850,0,stim,poldrack-single-stim,421,511917,0.0-6.2-71.2,go_nogo_deval,463,,<img class = center src='/static/experiments/go_nogo_deval/images/blue_pentagon.png'></img>,32,850,test,blue_pentagon,go2,32,23,2,,,,,,,-1,-1,1400,0,ITI,poldrack-single-stim,422,513319,0.0-6.2-72.2,go_nogo_deval,463,,<div></div>,32,1400,test,,,,,,,,,,,,-1,-1,500,0,fixation,poldrack-single-stim,423,513820,0.0-6.2-73.2,go_nogo_deval,463,,<div class = centerbox><div class = fixation>+</div></div>,none,500,test,,,,,,,,,,,,468,32,850,0,stim,poldrack-single-stim,424,514671,0.0-6.2-74.2,go_nogo_deval,463,,<img class = center src='/static/experiments/go_nogo_deval/images/blue_pentagon.png'></img>,32,850,test,blue_pentagon,go2,32,24,2,,,,,,,-1,-1,1400,0,ITI,poldrack-single-stim,425,516073,0.0-6.2-75.2,go_nogo_deval,463,,<div></div>,32,1400,test,,,,,,,,,,,,-1,-1,500,0,fixation,poldrack-single-stim,426,516575,0.0-6.2-76.2,go_nogo_deval,463,,<div class = centerbox><div class = fixation>+</div></div>,none,500,test,,,,,,,,,,,,571,32,850,0,stim,poldrack-single-stim,427,517427,0.0-6.2-77.2,go_nogo_deval,463,,<img class = center src='/static/experiments/go_nogo_deval/images/blue_pentagon.png'></img>,32,850,test,blue_pentagon,go2,32,25,2,,,,,,,-1,-1,1400,0,ITI,poldrack-single-stim,428,518828,0.0-6.2-78.2,go_nogo_deval,463,,<div></div>,32,1400,test,,,,,,,,,,,,-1,-1,500,0,fixation,poldrack-single-stim,429,519330,0.0-6.2-79.2,go_nogo_deval,463,,<div class = centerbox><div class = fixation>+</div></div>,none,500,test,,,,,,,,,,,,426,32,850,0,stim,poldrack-single-stim,430,520182,0.0-6.2-80.2,go_nogo_deval,463,,<img class = center src='/static/experiments/go_nogo_deval/images/blue_pentagon.png'></img>,32,850,test,blue_pentagon,go2,32,26,2,,,,,,,-1,-1,1400,0,ITI,poldrack-single-stim,431,521584,0.0-6.2-81.2,go_nogo_deval,463,,<div></div>,32,1400,test,,,,,,,,,,,,-1,-1,500,0,fixation,poldrack-single-stim,432,522085,0.0-6.2-82.2,go_nogo_deval,463,,<div class = centerbox><div class = fixation>+</div></div>,none,500,test,,,,,,,,,,,,-1,-1,850,0,stim,poldrack-single-stim,433,522937,0.0-6.2-83.2,go_nogo_deval,463,,<img class = center src='/static/experiments/go_nogo_deval/images/red_rhombus.png'></img>,32,850,test,red_rhombus,nogo2,-1,27,2,,,,,,,-1,-1,1400,0,ITI,poldrack-single-stim,434,524338,0.0-6.2-84.2,go_nogo_deval,463,,<div></div>,32,1400,test,,,,,,,,,,,,-1,-1,500,0,fixation,poldrack-single-stim,435,524840,0.0-6.2-85.2,go_nogo_deval,463,,<div class = centerbox><div class = fixation>+</div></div>,none,500,test,,,,,,,,,,,,485,32,850,0,stim,poldrack-single-stim,436,525692,0.0-6.2-86.2,go_nogo_deval,463,,<img class = center src='/static/experiments/go_nogo_deval/images/blue_pentagon.png'></img>,32,850,test,blue_pentagon,go2,32,28,2,,,,,,,-1,-1,1400,0,ITI,poldrack-single-stim,437,527094,0.0-6.2-87.2,go_nogo_deval,463,,<div></div>,32,1400,test,,,,,,,,,,,,-1,-1,500,0,fixation,poldrack-single-stim,438,527594,0.0-6.2-88.2,go_nogo_deval,463,,<div class = centerbox><div class = fixation>+</div></div>,none,500,test,,,,,,,,,,,,734,32,850,0,stim,poldrack-single-stim,439,528446,0.0-6.2-89.2,go_nogo_deval,463,,<img class = center src='/static/experiments/go_nogo_deval/images/blue_pentagon.png'></img>,32,850,test,blue_pentagon,go2,32,29,2,,,,,,,-1,-1,1400,0,ITI,poldrack-single-stim,440,529848,0.0-6.2-90.2,go_nogo_deval,463,,<div></div>,32,1400,test,,,,,,,,,,,,-1,-1,500,0,fixation,poldrack-single-stim,441,530350,0.0-6.2-91.2,go_nogo_deval,463,,<div class = centerbox><div class = fixation>+</div></div>,none,500,test,,,,,,,,,,,,-1,-1,850,0,stim,poldrack-single-stim,442,531203,0.0-6.2-92.2,go_nogo_deval,463,,<img class = center src='/static/experiments/go_nogo_deval/images/green_triangle.png'></img>,32,850,test,green_triangle,nogo1,-1,30,2,,,,,,,-1,-1,1400,0,ITI,poldrack-single-stim,443,532604,0.0-6.2-93.2,go_nogo_deval,463,,<div></div>,32,1400,test,,,,,,,,,,,,-1,-1,500,0,fixation,poldrack-single-stim,444,533106,0.0-6.2-94.2,go_nogo_deval,463,,<div class = centerbox><div class = fixation>+</div></div>,none,500,test,,,,,,,,,,,,465,32,850,0,stim,poldrack-single-stim,445,533958,0.0-6.2-95.2,go_nogo_deval,463,,<img class = center src='/static/experiments/go_nogo_deval/images/blue_pentagon.png'></img>,32,850,test,blue_pentagon,go2,32,31,2,,,,,,,-1,-1,1400,0,ITI,poldrack-single-stim,446,535360,0.0-6.2-96.2,go_nogo_deval,463,,<div></div>,32,1400,test,,,,,,,,,,,,-1,-1,500,0,fixation,poldrack-single-stim,447,535861,0.0-6.2-97.2,go_nogo_deval,463,,<div class = centerbox><div class = fixation>+</div></div>,none,500,test,,,,,,,,,,,,-1,-1,850,0,stim,poldrack-single-stim,448,536712,0.0-6.2-98.2,go_nogo_deval,463,,<img class = center src='/static/experiments/go_nogo_deval/images/red_rhombus.png'></img>,32,850,test,red_rhombus,nogo2,-1,32,2,,,,,,,-1,-1,1400,0,ITI,poldrack-single-stim,449,538114,0.0-6.2-99.2,go_nogo_deval,463,,<div></div>,32,1400,test,,,,,,,,,,,,-1,-1,500,0,fixation,poldrack-single-stim,450,538616,0.0-6.2-100.2,go_nogo_deval,463,,<div class = centerbox><div class = fixation>+</div></div>,none,500,test,,,,,,,,,,,,547,32,850,0,stim,poldrack-single-stim,451,539467,0.0-6.2-101.2,go_nogo_deval,463,,<img class = center src='/static/experiments/go_nogo_deval/images/purple_circle.png'></img>,32,850,test,purple_circle,go1,32,33,2,,,,,,,-1,-1,1400,0,ITI,poldrack-single-stim,452,540868,0.0-6.2-102.2,go_nogo_deval,463,,<div></div>,32,1400,test,,,,,,,,,,,,-1,-1,500,0,fixation,poldrack-single-stim,453,541370,0.0-6.2-103.2,go_nogo_deval,463,,<div class = centerbox><div class = fixation>+</div></div>,none,500,test,,,,,,,,,,,,471,32,850,0,stim,poldrack-single-stim,454,542222,0.0-6.2-104.2,go_nogo_deval,463,,<img class = center src='/static/experiments/go_nogo_deval/images/purple_circle.png'></img>,32,850,test,purple_circle,go1,32,34,2,,,,,,,-1,-1,1400,0,ITI,poldrack-single-stim,455,543623,0.0-6.2-105.2,go_nogo_deval,463,,<div></div>,32,1400,test,,,,,,,,,,,,-1,-1,500,0,fixation,poldrack-single-stim,456,544125,0.0-6.2-106.2,go_nogo_deval,463,,<div class = centerbox><div class = fixation>+</div></div>,none,500,test,,,,,,,,,,,,-1,-1,850,0,stim,poldrack-single-stim,457,544976,0.0-6.2-107.2,go_nogo_deval,463,,<img class = center src='/static/experiments/go_nogo_deval/images/green_triangle.png'></img>,32,850,test,green_triangle,nogo1,-1,35,2,,,,,,,-1,-1,1400,0,ITI,poldrack-single-stim,458,546378,0.0-6.2-108.2,go_nogo_deval,463,,<div></div>,32,1400,test,,,,,,,,,,,,-1,-1,500,0,fixation,poldrack-single-stim,459,546880,0.0-6.2-109.2,go_nogo_deval,463,,<div class = centerbox><div class = fixation>+</div></div>,none,500,test,,,,,,,,,,,,-1,-1,850,0,stim,poldrack-single-stim,460,547732,0.0-6.2-110.2,go_nogo_deval,463,,<img class = center src='/static/experiments/go_nogo_deval/images/green_triangle.png'></img>,32,850,test,green_triangle,nogo1,-1,36,2,,,,,,,-1,-1,1400,0,ITI,poldrack-single-stim,461,549134,0.0-6.2-111.2,go_nogo_deval,463,,<div></div>,32,1400,test,,,,,,,,,,,,-1,-1,500,0,fixation,poldrack-single-stim,462,549636,0.0-6.2-112.2,go_nogo_deval,463,,<div class = centerbox><div class = fixation>+</div></div>,none,500,test,,,,,,,,,,,,440,32,850,0,stim,poldrack-single-stim,463,550486,0.0-6.2-113.2,go_nogo_deval,463,,<img class = center src='/static/experiments/go_nogo_deval/images/purple_circle.png'></img>,32,850,test,purple_circle,go1,32,37,2,,,,,,,-1,-1,1400,0,ITI,poldrack-single-stim,464,551888,0.0-6.2-114.2,go_nogo_deval,463,,<div></div>,32,1400,test,,,,,,,,,,,,-1,-1,500,0,fixation,poldrack-single-stim,465,552389,0.0-6.2-115.2,go_nogo_deval,463,,<div class = centerbox><div class = fixation>+</div></div>,none,500,test,,,,,,,,,,,,-1,-1,850,0,stim,poldrack-single-stim,466,553241,0.0-6.2-116.2,go_nogo_deval,463,,<img class = center src='/static/experiments/go_nogo_deval/images/red_rhombus.png'></img>,32,850,test,red_rhombus,nogo2,-1,38,2,,,,,,,-1,-1,1400,0,ITI,poldrack-single-stim,467,554643,0.0-6.2-117.2,go_nogo_deval,463,,<div></div>,32,1400,test,,,,,,,,,,,,-1,-1,500,0,fixation,poldrack-single-stim,468,555145,0.0-6.2-118.2,go_nogo_deval,463,,<div class = centerbox><div class = fixation>+</div></div>,none,500,test,,,,,,,,,,,,-1,-1,850,0,stim,poldrack-single-stim,469,555996,0.0-6.2-119.2,go_nogo_deval,463,,<img class = center src='/static/experiments/go_nogo_deval/images/red_rhombus.png'></img>,32,850,test,red_rhombus,nogo2,-1,39,2,,,,,,,-1,-1,1400,0,ITI,poldrack-single-stim,470,557398,0.0-6.2-120.2,go_nogo_deval,463,,<div></div>,32,1400,test,,,,,,,,,,,,-1,-1,500,0,fixation,poldrack-single-stim,471,557900,0.0-6.2-121.2,go_nogo_deval,463,,<div class = centerbox><div class = fixation>+</div></div>,none,500,test,,,,,,,,,,,,545,32,850,0,stim,poldrack-single-stim,472,558751,0.0-6.2-122.2,go_nogo_deval,463,,<img class = center src='/static/experiments/go_nogo_deval/images/purple_circle.png'></img>,32,850,test,purple_circle,go1,32,40,2,,,,,,,-1,-1,1400,0,ITI,poldrack-single-stim,473,560153,0.0-6.2-123.2,go_nogo_deval,463,,<div></div>,32,1400,test,,,,,,,,,,,,-1,-1,500,0,fixation,poldrack-single-stim,474,560655,0.0-6.2-124.2,go_nogo_deval,463,,<div class = centerbox><div class = fixation>+</div></div>,none,500,test,,,,,,,,,,,,435,32,850,0,stim,poldrack-single-stim,475,561507,0.0-6.2-125.2,go_nogo_deval,463,,<img class = center src='/static/experiments/go_nogo_deval/images/purple_circle.png'></img>,32,850,test,purple_circle,go1,32,41,2,,,,,,,-1,-1,1400,0,ITI,poldrack-single-stim,476,562908,0.0-6.2-126.2,go_nogo_deval,463,,<div></div>,32,1400,test,,,,,,,,,,,,-1,-1,500,0,fixation,poldrack-single-stim,477,563410,0.0-6.2-127.2,go_nogo_deval,463,,<div class = centerbox><div class = fixation>+</div></div>,none,500,test,,,,,,,,,,,,-1,-1,850,0,stim,poldrack-single-stim,478,564261,0.0-6.2-128.2,go_nogo_deval,463,,<img class = center src='/static/experiments/go_nogo_deval/images/red_rhombus.png'></img>,32,850,test,red_rhombus,nogo2,-1,42,2,,,,,,,-1,-1,1400,0,ITI,poldrack-single-stim,479,565663,0.0-6.2-129.2,go_nogo_deval,463,,<div></div>,32,1400,test,,,,,,,,,,,,-1,-1,500,0,fixation,poldrack-single-stim,480,566165,0.0-6.2-130.2,go_nogo_deval,463,,<div class = centerbox><div class = fixation>+</div></div>,none,500,test,,,,,,,,,,,,-1,-1,850,0,stim,poldrack-single-stim,481,567016,0.0-6.2-131.2,go_nogo_deval,463,,<img class = center src='/static/experiments/go_nogo_deval/images/red_rhombus.png'></img>,32,850,test,red_rhombus,nogo2,-1,43,2,,,,,,,-1,-1,1400,0,ITI,poldrack-single-stim,482,568417,0.0-6.2-132.2,go_nogo_deval,463,,<div></div>,32,1400,test,,,,,,,,,,,,-1,-1,500,0,fixation,poldrack-single-stim,483,568919,0.0-6.2-133.2,go_nogo_deval,463,,<div class = centerbox><div class = fixation>+</div></div>,none,500,test,,,,,,,,,,,,608,32,850,0,stim,poldrack-single-stim,484,569771,0.0-6.2-134.2,go_nogo_deval,463,,<img class = center src='/static/experiments/go_nogo_deval/images/purple_circle.png'></img>,32,850,test,purple_circle,go1,32,44,2,,,,,,,-1,-1,1400,0,ITI,poldrack-single-stim,485,571173,0.0-6.2-135.2,go_nogo_deval,463,,<div></div>,32,1400,test,,,,,,,,,,,,-1,-1,500,0,fixation,poldrack-single-stim,486,571674,0.0-6.2-136.2,go_nogo_deval,463,,<div class = centerbox><div class = fixation>+</div></div>,none,500,test,,,,,,,,,,,,497,32,850,0,stim,poldrack-single-stim,487,572526,0.0-6.2-137.2,go_nogo_deval,463,,<img class = center src='/static/experiments/go_nogo_deval/images/blue_pentagon.png'></img>,32,850,test,blue_pentagon,go2,32,45,2,,,,,,,-1,-1,1400,0,ITI,poldrack-single-stim,488,573927,0.0-6.2-138.2,go_nogo_deval,463,,<div></div>,32,1400,test,,,,,,,,,,,,-1,-1,500,0,fixation,poldrack-single-stim,489,574429,0.0-6.2-139.2,go_nogo_deval,463,,<div class = centerbox><div class = fixation>+</div></div>,none,500,test,,,,,,,,,,,,543,32,850,0,stim,poldrack-single-stim,490,575281,0.0-6.2-140.2,go_nogo_deval,463,,<img class = center src='/static/experiments/go_nogo_deval/images/purple_circle.png'></img>,32,850,test,purple_circle,go1,32,46,2,,,,,,,-1,-1,1400,0,ITI,poldrack-single-stim,491,576683,0.0-6.2-141.2,go_nogo_deval,463,,<div></div>,32,1400,test,,,,,,,,,,,,-1,-1,500,0,fixation,poldrack-single-stim,492,577184,0.0-6.2-142.2,go_nogo_deval,463,,<div class = centerbox><div class = fixation>+</div></div>,none,500,test,,,,,,,,,,,,464,32,850,0,stim,poldrack-single-stim,493,578036,0.0-6.2-143.2,go_nogo_deval,463,,<img class = center src='/static/experiments/go_nogo_deval/images/blue_pentagon.png'></img>,32,850,test,blue_pentagon,go2,32,47,2,,,,,,,-1,-1,1400,0,ITI,poldrack-single-stim,494,579437,0.0-6.2-144.2,go_nogo_deval,463,,<div></div>,32,1400,test,,,,,,,,,,,,4170,13,4170,0,practice-no-stop-feedback,poldrack-single-stim,495,583613,0.0-6.3-0.3,go_nogo_deval,463,,<div class = centerbox><p class = block-text><br>Please take this time to read your feedback and to take a short break! Press enter to continue</p><p class = block-text><strong>Average reaction time:  484 ms. Accuracy: 100%</strong></p></div>,13,4170,,,,,,,,,,,,,-1,-1,500,0,fixation,poldrack-single-stim,496,584113,0.0-6.3-1.3,go_nogo_deval,463,,<div class = centerbox><div class = fixation>+</div></div>,none,500,test,,,,,,,,,,,,465,32,850,0,stim,poldrack-single-stim,497,584965,0.0-6.3-2.3,go_nogo_deval,463,,<img class = center src='/static/experiments/go_nogo_deval/images/purple_circle.png'></img>,32,850,test,purple_circle,go1,32,0,3,,,,,,,-1,-1,1400,0,ITI,poldrack-single-stim,498,586367,0.0-6.3-3.3,go_nogo_deval,463,,<div></div>,32,1400,test,,,,,,,,,,,,-1,-1,500,0,fixation,poldrack-single-stim,499,586869,0.0-6.3-4.3,go_nogo_deval,463,,<div class = centerbox><div class = fixation>+</div></div>,none,500,test,,,,,,,,,,,,343,32,850,0,stim,poldrack-single-stim,500,587721,0.0-6.3-5.3,go_nogo_deval,463,,<img class = center src='/static/experiments/go_nogo_deval/images/purple_circle.png'></img>,32,850,test,purple_circle,go1,32,1,3,,,,,,,-1,-1,1400,0,ITI,poldrack-single-stim,501,589123,0.0-6.3-6.3,go_nogo_deval,463,,<div></div>,32,1400,test,,,,,,,,,,,,-1,-1,500,0,fixation,poldrack-single-stim,502,589624,0.0-6.3-7.3,go_nogo_deval,463,,<div class = centerbox><div class = fixation>+</div></div>,none,500,test,,,,,,,,,,,,445,32,850,0,stim,poldrack-single-stim,503,590475,0.0-6.3-8.3,go_nogo_deval,463,,<img class = center src='/static/experiments/go_nogo_deval/images/blue_pentagon.png'></img>,32,850,test,blue_pentagon,go2,32,2,3,,,,,,,-1,-1,1400,0,ITI,poldrack-single-stim,504,591877,0.0-6.3-9.3,go_nogo_deval,463,,<div></div>,32,1400,test,,,,,,,,,,,,-1,-1,500,0,fixation,poldrack-single-stim,505,592379,0.0-6.3-10.3,go_nogo_deval,463,,<div class = centerbox><div class = fixation>+</div></div>,none,500,test,,,,,,,,,,,,435,32,850,0,stim,poldrack-single-stim,506,593231,0.0-6.3-11.3,go_nogo_deval,463,,<img class = center src='/static/experiments/go_nogo_deval/images/blue_pentagon.png'></img>,32,850,test,blue_pentagon,go2,32,3,3,,,,,,,-1,-1,1400,0,ITI,poldrack-single-stim,507,594631,0.0-6.3-12.3,go_nogo_deval,463,,<div></div>,32,1400,test,,,,,,,,,,,,-1,-1,500,0,fixation,poldrack-single-stim,508,595133,0.0-6.3-13.3,go_nogo_deval,463,,<div class = centerbox><div class = fixation>+</div></div>,none,500,test,,,,,,,,,,,,-1,-1,850,0,stim,poldrack-single-stim,509,595985,0.0-6.3-14.3,go_nogo_deval,463,,<img class = center src='/static/experiments/go_nogo_deval/images/green_triangle.png'></img>,32,850,test,green_triangle,nogo1,-1,4,3,,,,,,,-1,-1,1400,0,ITI,poldrack-single-stim,510,597387,0.0-6.3-15.3,go_nogo_deval,463,,<div></div>,32,1400,test,,,,,,,,,,,,-1,-1,500,0,fixation,poldrack-single-stim,511,597888,0.0-6.3-16.3,go_nogo_deval,463,,<div class = centerbox><div class = fixation>+</div></div>,none,500,test,,,,,,,,,,,,608,32,850,0,stim,poldrack-single-stim,512,598740,0.0-6.3-17.3,go_nogo_deval,463,,<img class = center src='/static/experiments/go_nogo_deval/images/blue_pentagon.png'></img>,32,850,test,blue_pentagon,go2,32,5,3,,,,,,,-1,-1,1400,0,ITI,poldrack-single-stim,513,600142,0.0-6.3-18.3,go_nogo_deval,463,,<div></div>,32,1400,test,,,,,,,,,,,,-1,-1,500,0,fixation,poldrack-single-stim,514,600643,0.0-6.3-19.3,go_nogo_deval,463,,<div class = centerbox><div class = fixation>+</div></div>,none,500,test,,,,,,,,,,,,-1,-1,850,0,stim,poldrack-single-stim,515,601496,0.0-6.3-20.3,go_nogo_deval,463,,<img class = center src='/static/experiments/go_nogo_deval/images/green_triangle.png'></img>,32,850,test,green_triangle,nogo1,-1,6,3,,,,,,,-1,-1,1400,0,ITI,poldrack-single-stim,516,602897,0.0-6.3-21.3,go_nogo_deval,463,,<div></div>,32,1400,test,,,,,,,,,,,,-1,-1,500,0,fixation,poldrack-single-stim,517,603398,0.0-6.3-22.3,go_nogo_deval,463,,<div class = centerbox><div class = fixation>+</div></div>,none,500,test,,,,,,,,,,,,418,32,850,0,stim,poldrack-single-stim,518,604250,0.0-6.3-23.3,go_nogo_deval,463,,<img class = center src='/static/experiments/go_nogo_deval/images/blue_pentagon.png'></img>,32,850,test,blue_pentagon,go2,32,7,3,,,,,,,-1,-1,1400,0,ITI,poldrack-single-stim,519,605652,0.0-6.3-24.3,go_nogo_deval,463,,<div></div>,32,1400,test,,,,,,,,,,,,-1,-1,500,0,fixation,poldrack-single-stim,520,606153,0.0-6.3-25.3,go_nogo_deval,463,,<div class = centerbox><div class = fixation>+</div></div>,none,500,test,,,,,,,,,,,,509,32,850,0,stim,poldrack-single-stim,521,607005,0.0-6.3-26.3,go_nogo_deval,463,,<img class = center src='/static/experiments/go_nogo_deval/images/blue_pentagon.png'></img>,32,850,test,blue_pentagon,go2,32,8,3,,,,,,,-1,-1,1400,0,ITI,poldrack-single-stim,522,608406,0.0-6.3-27.3,go_nogo_deval,463,,<div></div>,32,1400,test,,,,,,,,,,,,-1,-1,500,0,fixation,poldrack-single-stim,523,608908,0.0-6.3-28.3,go_nogo_deval,463,,<div class = centerbox><div class = fixation>+</div></div>,none,500,test,,,,,,,,,,,,388,32,850,0,stim,poldrack-single-stim,524,609759,0.0-6.3-29.3,go_nogo_deval,463,,<img class = center src='/static/experiments/go_nogo_deval/images/purple_circle.png'></img>,32,850,test,purple_circle,go1,32,9,3,,,,,,,-1,-1,1400,0,ITI,poldrack-single-stim,525,611160,0.0-6.3-30.3,go_nogo_deval,463,,<div></div>,32,1400,test,,,,,,,,,,,,-1,-1,500,0,fixation,poldrack-single-stim,526,611662,0.0-6.3-31.3,go_nogo_deval,463,,<div class = centerbox><div class = fixation>+</div></div>,none,500,test,,,,,,,,,,,,-1,-1,850,0,stim,poldrack-single-stim,527,612514,0.0-6.3-32.3,go_nogo_deval,463,,<img class = center src='/static/experiments/go_nogo_deval/images/red_rhombus.png'></img>,32,850,test,red_rhombus,nogo2,-1,10,3,,,,,,,-1,-1,1400,0,ITI,poldrack-single-stim,528,613916,0.0-6.3-33.3,go_nogo_deval,463,,<div></div>,32,1400,test,,,,,,,,,,,,-1,-1,500,0,fixation,poldrack-single-stim,529,614418,0.0-6.3-34.3,go_nogo_deval,463,,<div class = centerbox><div class = fixation>+</div></div>,none,500,test,,,,,,,,,,,,469,32,850,0,stim,poldrack-single-stim,530,615269,0.0-6.3-35.3,go_nogo_deval,463,,<img class = center src='/static/experiments/go_nogo_deval/images/purple_circle.png'></img>,32,850,test,purple_circle,go1,32,11,3,,,,,,,-1,-1,1400,0,ITI,poldrack-single-stim,531,616671,0.0-6.3-36.3,go_nogo_deval,463,,<div></div>,32,1400,test,,,,,,,,,,,,-1,-1,500,0,fixation,poldrack-single-stim,532,617171,0.0-6.3-37.3,go_nogo_deval,463,,<div class = centerbox><div class = fixation>+</div></div>,none,500,test,,,,,,,,,,,,494,32,850,0,stim,poldrack-single-stim,533,618023,0.0-6.3-38.3,go_nogo_deval,463,,<img class = center src='/static/experiments/go_nogo_deval/images/purple_circle.png'></img>,32,850,test,purple_circle,go1,32,12,3,,,,,,,-1,-1,1400,0,ITI,poldrack-single-stim,534,619425,0.0-6.3-39.3,go_nogo_deval,463,,<div></div>,32,1400,test,,,,,,,,,,,,-1,-1,500,0,fixation,poldrack-single-stim,535,619927,0.0-6.3-40.3,go_nogo_deval,463,,<div class = centerbox><div class = fixation>+</div></div>,none,500,test,,,,,,,,,,,,-1,-1,850,0,stim,poldrack-single-stim,536,620779,0.0-6.3-41.3,go_nogo_deval,463,,<img class = center src='/static/experiments/go_nogo_deval/images/green_triangle.png'></img>,32,850,test,green_triangle,nogo1,-1,13,3,,,,,,,-1,-1,1400,0,ITI,poldrack-single-stim,537,622180,0.0-6.3-42.3,go_nogo_deval,463,,<div></div>,32,1400,test,,,,,,,,,,,,-1,-1,500,0,fixation,poldrack-single-stim,538,622681,0.0-6.3-43.3,go_nogo_deval,463,,<div class = centerbox><div class = fixation>+</div></div>,none,500,test,,,,,,,,,,,,474,32,850,0,stim,poldrack-single-stim,539,623533,0.0-6.3-44.3,go_nogo_deval,463,,<img class = center src='/static/experiments/go_nogo_deval/images/purple_circle.png'></img>,32,850,test,purple_circle,go1,32,14,3,,,,,,,-1,-1,1400,0,ITI,poldrack-single-stim,540,624935,0.0-6.3-45.3,go_nogo_deval,463,,<div></div>,32,1400,test,,,,,,,,,,,,-1,-1,500,0,fixation,poldrack-single-stim,541,625437,0.0-6.3-46.3,go_nogo_deval,463,,<div class = centerbox><div class = fixation>+</div></div>,none,500,test,,,,,,,,,,,,-1,-1,850,0,stim,poldrack-single-stim,542,626289,0.0-6.3-47.3,go_nogo_deval,463,,<img class = center src='/static/experiments/go_nogo_deval/images/green_triangle.png'></img>,32,850,test,green_triangle,nogo1,-1,15,3,,,,,,,-1,-1,1400,0,ITI,poldrack-single-stim,543,627689,0.0-6.3-48.3,go_nogo_deval,463,,<div></div>,32,1400,test,,,,,,,,,,,,-1,-1,500,0,fixation,poldrack-single-stim,544,628191,0.0-6.3-49.3,go_nogo_deval,463,,<div class = centerbox><div class = fixation>+</div></div>,none,500,test,,,,,,,,,,,,444,32,850,0,stim,poldrack-single-stim,545,629042,0.0-6.3-50.3,go_nogo_deval,463,,<img class = center src='/static/experiments/go_nogo_deval/images/purple_circle.png'></img>,32,850,test,purple_circle,go1,32,16,3,,,,,,,-1,-1,1400,0,ITI,poldrack-single-stim,546,630443,0.0-6.3-51.3,go_nogo_deval,463,,<div></div>,32,1400,test,,,,,,,,,,,,-1,-1,500,0,fixation,poldrack-single-stim,547,630944,0.0-6.3-52.3,go_nogo_deval,463,,<div class = centerbox><div class = fixation>+</div></div>,none,500,test,,,,,,,,,,,,424,32,850,0,stim,poldrack-single-stim,548,631796,0.0-6.3-53.3,go_nogo_deval,463,,<img class = center src='/static/experiments/go_nogo_deval/images/blue_pentagon.png'></img>,32,850,test,blue_pentagon,go2,32,17,3,,,,,,,-1,-1,1400,0,ITI,poldrack-single-stim,549,633197,0.0-6.3-54.3,go_nogo_deval,463,,<div></div>,32,1400,test,,,,,,,,,,,,-1,-1,500,0,fixation,poldrack-single-stim,550,633699,0.0-6.3-55.3,go_nogo_deval,463,,<div class = centerbox><div class = fixation>+</div></div>,none,500,test,,,,,,,,,,,,-1,-1,850,0,stim,poldrack-single-stim,551,634551,0.0-6.3-56.3,go_nogo_deval,463,,<img class = center src='/static/experiments/go_nogo_deval/images/red_rhombus.png'></img>,32,850,test,red_rhombus,nogo2,-1,18,3,,,,,,,-1,-1,1400,0,ITI,poldrack-single-stim,552,635952,0.0-6.3-57.3,go_nogo_deval,463,,<div></div>,32,1400,test,,,,,,,,,,,,-1,-1,500,0,fixation,poldrack-single-stim,553,636453,0.0-6.3-58.3,go_nogo_deval,463,,<div class = centerbox><div class = fixation>+</div></div>,none,500,test,,,,,,,,,,,,-1,-1,850,0,stim,poldrack-single-stim,554,637305,0.0-6.3-59.3,go_nogo_deval,463,,<img class = center src='/static/experiments/go_nogo_deval/images/red_rhombus.png'></img>,32,850,test,red_rhombus,nogo2,-1,19,3,,,,,,,-1,-1,1400,0,ITI,poldrack-single-stim,555,638707,0.0-6.3-60.3,go_nogo_deval,463,,<div></div>,32,1400,test,,,,,,,,,,,,-1,-1,500,0,fixation,poldrack-single-stim,556,639209,0.0-6.3-61.3,go_nogo_deval,463,,<div class = centerbox><div class = fixation>+</div></div>,none,500,test,,,,,,,,,,,,-1,-1,850,0,stim,poldrack-single-stim,557,640059,0.0-6.3-62.3,go_nogo_deval,463,,<img class = center src='/static/experiments/go_nogo_deval/images/red_rhombus.png'></img>,32,850,test,red_rhombus,nogo2,-1,20,3,,,,,,,-1,-1,1400,0,ITI,poldrack-single-stim,558,641461,0.0-6.3-63.3,go_nogo_deval,463,,<div></div>,32,1400,test,,,,,,,,,,,,-1,-1,500,0,fixation,poldrack-single-stim,559,641963,0.0-6.3-64.3,go_nogo_deval,463,,<div class = centerbox><div class = fixation>+</div></div>,none,500,test,,,,,,,,,,,,465,32,850,0,stim,poldrack-single-stim,560,642815,0.0-6.3-65.3,go_nogo_deval,463,,<img class = center src='/static/experiments/go_nogo_deval/images/purple_circle.png'></img>,32,850,test,purple_circle,go1,32,21,3,,,,,,,-1,-1,1400,0,ITI,poldrack-single-stim,561,644217,0.0-6.3-66.3,go_nogo_deval,463,,<div></div>,32,1400,test,,,,,,,,,,,,-1,-1,500,0,fixation,poldrack-single-stim,562,644718,0.0-6.3-67.3,go_nogo_deval,463,,<div class = centerbox><div class = fixation>+</div></div>,none,500,test,,,,,,,,,,,,431,32,850,0,stim,poldrack-single-stim,563,645570,0.0-6.3-68.3,go_nogo_deval,463,,<img class = center src='/static/experiments/go_nogo_deval/images/blue_pentagon.png'></img>,32,850,test,blue_pentagon,go2,32,22,3,,,,,,,-1,-1,1400,0,ITI,poldrack-single-stim,564,646971,0.0-6.3-69.3,go_nogo_deval,463,,<div></div>,32,1400,test,,,,,,,,,,,,-1,-1,500,0,fixation,poldrack-single-stim,565,647472,0.0-6.3-70.3,go_nogo_deval,463,,<div class = centerbox><div class = fixation>+</div></div>,none,500,test,,,,,,,,,,,,366,32,850,0,stim,poldrack-single-stim,566,648324,0.0-6.3-71.3,go_nogo_deval,463,,<img class = center src='/static/experiments/go_nogo_deval/images/blue_pentagon.png'></img>,32,850,test,blue_pentagon,go2,32,23,3,,,,,,,-1,-1,1400,0,ITI,poldrack-single-stim,567,649726,0.0-6.3-72.3,go_nogo_deval,463,,<div></div>,32,1400,test,,,,,,,,,,,,-1,-1,500,0,fixation,poldrack-single-stim,568,650227,0.0-6.3-73.3,go_nogo_deval,463,,<div class = centerbox><div class = fixation>+</div></div>,none,500,test,,,,,,,,,,,,356,32,850,0,stim,poldrack-single-stim,569,651079,0.0-6.3-74.3,go_nogo_deval,463,,<img class = center src='/static/experiments/go_nogo_deval/images/blue_pentagon.png'></img>,32,850,test,blue_pentagon,go2,32,24,3,,,,,,,-1,-1,1400,0,ITI,poldrack-single-stim,570,652481,0.0-6.3-75.3,go_nogo_deval,463,,<div></div>,32,1400,test,,,,,,,,,,,