text,rt,key_press,block_duration,timing_post_trial,trial_id,trial_type,trial_index,time_elapsed,internal_node_id,exp_id,subject_ID,view_history,stimulus,possible_responses,stim_duration,exp_stage,stim,go_nogo_type,correct_response,current_trial,current_block,chosenStim,chosenCond,stimLeft,cond_left,stimRight,cond_right<div class = centerbox><p class = center-block-text>Welcome to the task!</p><p class = center-block-text>Press<strong> enter</strong> to continue.</p></div>,1850,13,1850,0,welcome,poldrack-text,0,1851,0.0-0.0,go_nogo_deval,440,,,,,,,,,,,,,,,,,63272,,,,instruction,poldrack-instructions,1,65124,0.0-1.0,go_nogo_deval,440,"[{""page_index"":0,""viewing_time"":3905},{""page_index"":1,""viewing_time"":59366}]",,,,,,,,,,,,,,,,9861,13,9861,0,stop_intro_phase1,poldrack-single-stim,2,75988,0.0-2.0,go_nogo_deval,440,,"<div class = centerbox><p class = block-text>We will now start the practice for the experiment.<br><br>For these trials, you must press the <strong>spacebar </strong> or have <strong>no response</strong> depending on the shape of the stimulus.  Make sure to respond as quickly and accurately as possible to the shape. <br><br> The responses for each shape are as follows: <ul list-text><li>pentagon: spacebar</li><li>circle: spacebar</li><li>triangle: no response</li><li>rhombus: no response</li></ul></p><p class = block-text>Remember these rules before you proceed.</p><p class = block-text>Press <strong> enter</strong> to begin.</p></div>",13,9861,,,,,,,,,,,,,4037,13,4037,0,practice-no-stop-feedback,poldrack-single-stim,3,80027,0.0-3.0-0.0,go_nogo_deval,440,,<div class = centerbox><p class = block-text>We will now start with a practice session. In this practice concentrate on responding quickly and accurately to each stimuli unless it requires no response.</p><p class = block-text>Press enter to continue.</p></div>,13,4037,,,,,,,,,,,,,-1,-1,500,0,prompt_fixation,poldrack-single-stim,4,80529,0.0-3.0-1.0,go_nogo_deval,440,,<div class = centerbox><div class = fixation>+</div></div>,none,500,practice,,,,,,,,,,,,464,32,850,0,stim,poldrack-single-stim,5,81381,0.0-3.0-2.0,go_nogo_deval,440,,<img class = center src='/static/experiments/go_nogo_deval/images/blue_circle.png'></img>,32,850,practice,blue_circle,go2,32,0,0,,,,,,,-1,-1,1400,0,ITI,poldrack-single-stim,6,82784,0.0-3.0-3.0,go_nogo_deval,440,,<div></div>,32,1400,practice,,,,,,,,,,,,-1,-1,500,0,prompt_fixation,poldrack-single-stim,7,83286,0.0-3.0-4.0,go_nogo_deval,440,,<div class = centerbox><div class = fixation>+</div></div>,none,500,practice,,,,,,,,,,,,407,32,850,0,stim,poldrack-single-stim,8,84138,0.0-3.0-5.0,go_nogo_deval,440,,<img class = center src='/static/experiments/go_nogo_deval/images/blue_circle.png'></img>,32,850,practice,blue_circle,go2,32,1,0,,,,,,,-1,-1,1400,0,ITI,poldrack-single-stim,9,85539,0.0-3.0-6.0,go_nogo_deval,440,,<div></div>,32,1400,practice,,,,,,,,,,,,-1,-1,500,0,prompt_fixation,poldrack-single-stim,10,86040,0.0-3.0-7.0,go_nogo_deval,440,,<div class = centerbox><div class = fixation>+</div></div>,none,500,practice,,,,,,,,,,,,-1,-1,850,0,stim,poldrack-single-stim,11,86891,0.0-3.0-8.0,go_nogo_deval,440,,<img class = center src='/static/experiments/go_nogo_deval/images/red_rhombus.png'></img>,32,850,practice,red_rhombus,nogo2,-1,2,0,,,,,,,-1,-1,1400,0,ITI,poldrack-single-stim,12,88293,0.0-3.0-9.0,go_nogo_deval,440,,<div></div>,32,1400,practice,,,,,,,,,,,,-1,-1,500,0,prompt_fixation,poldrack-single-stim,13,88795,0.0-3.0-10.0,go_nogo_deval,440,,<div class = centerbox><div class = fixation>+</div></div>,none,500,practice,,,,,,,,,,,,-1,-1,850,0,stim,poldrack-single-stim,14,89647,0.0-3.0-11.0,go_nogo_deval,440,,<img class = center src='/static/experiments/go_nogo_deval/images/red_rhombus.png'></img>,32,850,practice,red_rhombus,nogo2,-1,3,0,,,,,,,-1,-1,1400,0,ITI,poldrack-single-stim,15,91049,0.0-3.0-12.0,go_nogo_deval,440,,<div></div>,32,1400,practice,,,,,,,,,,,,-1,-1,500,0,prompt_fixation,poldrack-single-stim,16,91551,0.0-3.0-13.0,go_nogo_deval,440,,<div class = centerbox><div class = fixation>+</div></div>,none,500,practice,,,,,,,,,,,,321,32,850,0,stim,poldrack-single-stim,17,92403,0.0-3.0-14.0,go_nogo_deval,440,,<img class = center src='/static/experiments/go_nogo_deval/images/purple_pentagon.png'></img>,32,850,practice,purple_pentagon,go1,32,4,0,,,,,,,-1,-1,1400,0,ITI,poldrack-single-stim,18,93805,0.0-3.0-15.0,go_nogo_deval,440,,<div></div>,32,1400,practice,,,,,,,,,,,,-1,-1,500,0,prompt_fixation,poldrack-single-stim,19,94306,0.0-3.0-16.0,go_nogo_deval,440,,<div class = centerbox><div class = fixation>+</div></div>,none,500,practice,,,,,,,,,,,,424,32,850,0,stim,poldrack-single-stim,20,95157,0.0-3.0-17.0,go_nogo_deval,440,,<img class = center src='/static/experiments/go_nogo_deval/images/purple_pentagon.png'></img>,32,850,practice,purple_pentagon,go1,32,5,0,,,,,,,-1,-1,1400,0,ITI,poldrack-single-stim,21,96559,0.0-3.0-18.0,go_nogo_deval,440,,<div></div>,32,1400,practice,,,,,,,,,,,,-1,-1,500,0,prompt_fixation,poldrack-single-stim,22,97061,0.0-3.0-19.0,go_nogo_deval,440,,<div class = centerbox><div class = fixation>+</div></div>,none,500,practice,,,,,,,,,,,,413,32,850,0,stim,poldrack-single-stim,23,97913,0.0-3.0-20.0,go_nogo_deval,440,,<img class = center src='/static/experiments/go_nogo_deval/images/purple_pentagon.png'></img>,32,850,practice,purple_pentagon,go1,32,6,0,,,,,,,-1,-1,1400,0,ITI,poldrack-single-stim,24,99316,0.0-3.0-21.0,go_nogo_deval,440,,<div></div>,32,1400,practice,,,,,,,,,,,,-1,-1,500,0,prompt_fixation,poldrack-single-stim,25,99818,0.0-3.0-22.0,go_nogo_deval,440,,<div class = centerbox><div class = fixation>+</div></div>,none,500,practice,,,,,,,,,,,,323,32,850,0,stim,poldrack-single-stim,26,100670,0.0-3.0-23.0,go_nogo_deval,440,,<img class = center src='/static/experiments/go_nogo_deval/images/blue_circle.png'></img>,32,850,practice,blue_circle,go2,32,7,0,,,,,,,-1,-1,1400,0,ITI,poldrack-single-stim,27,102072,0.0-3.0-24.0,go_nogo_deval,440,,<div></div>,32,1400,practice,,,,,,,,,,,,-1,-1,500,0,prompt_fixation,poldrack-single-stim,28,102573,0.0-3.0-25.0,go_nogo_deval,440,,<div class = centerbox><div class = fixation>+</div></div>,none,500,practice,,,,,,,,,,,,-1,-1,850,0,stim,poldrack-single-stim,29,103426,0.0-3.0-26.0,go_nogo_deval,440,,<img class = center src='/static/experiments/go_nogo_deval/images/green_triangle.png'></img>,32,850,practice,green_triangle,nogo1,-1,8,0,,,,,,,-1,-1,1400,0,ITI,poldrack-single-stim,30,104827,0.0-3.0-27.0,go_nogo_deval,440,,<div></div>,32,1400,practice,,,,,,,,,,,,-1,-1,500,0,prompt_fixation,poldrack-single-stim,31,105328,0.0-3.0-28.0,go_nogo_deval,440,,<div class = centerbox><div class = fixation>+</div></div>,none,500,practice,,,,,,,,,,,,392,32,850,0,stim,poldrack-single-stim,32,106180,0.0-3.0-29.0,go_nogo_deval,440,,<img class = center src='/static/experiments/go_nogo_deval/images/blue_circle.png'></img>,32,850,practice,blue_circle,go2,32,9,0,,,,,,,-1,-1,1400,0,ITI,poldrack-single-stim,33,107581,0.0-3.0-30.0,go_nogo_deval,440,,<div></div>,32,1400,practice,,,,,,,,,,,,-1,-1,500,0,prompt_fixation,poldrack-single-stim,34,108083,0.0-3.0-31.0,go_nogo_deval,440,,<div class = centerbox><div class = fixation>+</div></div>,none,500,practice,,,,,,,,,,,,393,32,850,0,stim,poldrack-single-stim,35,108935,0.0-3.0-32.0,go_nogo_deval,440,,<img class = center src='/static/experiments/go_nogo_deval/images/blue_circle.png'></img>,32,850,practice,blue_circle,go2,32,10,0,,,,,,,-1,-1,1400,0,ITI,poldrack-single-stim,36,110336,0.0-3.0-33.0,go_nogo_deval,440,,<div></div>,32,1400,practice,,,,,,,,,,,,-1,-1,500,0,prompt_fixation,poldrack-single-stim,37,110838,0.0-3.0-34.0,go_nogo_deval,440,,<div class = centerbox><div class = fixation>+</div></div>,none,500,practice,,,,,,,,,,,,452,32,850,0,stim,poldrack-single-stim,38,111690,0.0-3.0-35.0,go_nogo_deval,440,,<img class = center src='/static/experiments/go_nogo_deval/images/purple_pentagon.png'></img>,32,850,practice,purple_pentagon,go1,32,11,0,,,,,,,-1,-1,1400,0,ITI,poldrack-single-stim,39,113092,0.0-3.0-36.0,go_nogo_deval,440,,<div></div>,32,1400,practice,,,,,,,,,,,,-1,-1,500,0,prompt_fixation,poldrack-single-stim,40,113593,0.0-3.0-37.0,go_nogo_deval,440,,<div class = centerbox><div class = fixation>+</div></div>,none,500,practice,,,,,,,,,,,,419,32,850,0,stim,poldrack-single-stim,41,114445,0.0-3.0-38.0,go_nogo_deval,440,,<img class = center src='/static/experiments/go_nogo_deval/images/purple_pentagon.png'></img>,32,850,practice,purple_pentagon,go1,32,12,0,,,,,,,-1,-1,1400,0,ITI,poldrack-single-stim,42,115847,0.0-3.0-39.0,go_nogo_deval,440,,<div></div>,32,1400,practice,,,,,,,,,,,,-1,-1,500,0,prompt_fixation,poldrack-single-stim,43,116349,0.0-3.0-40.0,go_nogo_deval,440,,<div class = centerbox><div class = fixation>+</div></div>,none,500,practice,,,,,,,,,,,,375,32,850,0,stim,poldrack-single-stim,44,117200,0.0-3.0-41.0,go_nogo_deval,440,,<img class = center src='/static/experiments/go_nogo_deval/images/blue_circle.png'></img>,32,850,practice,blue_circle,go2,32,13,0,,,,,,,-1,-1,1400,0,ITI,poldrack-single-stim,45,118602,0.0-3.0-42.0,go_nogo_deval,440,,<div></div>,32,1400,practice,,,,,,,,,,,,-1,-1,500,0,prompt_fixation,poldrack-single-stim,46,119104,0.0-3.0-43.0,go_nogo_deval,440,,<div class = centerbox><div class = fixation>+</div></div>,none,500,practice,,,,,,,,,,,,342,32,850,0,stim,poldrack-single-stim,47,119956,0.0-3.0-44.0,go_nogo_deval,440,,<img class = center src='/static/experiments/go_nogo_deval/images/purple_pentagon.png'></img>,32,850,practice,purple_pentagon,go1,32,14,0,,,,,,,-1,-1,1400,0,ITI,poldrack-single-stim,48,121358,0.0-3.0-45.0,go_nogo_deval,440,,<div></div>,32,1400,practice,,,,,,,,,,,,-1,-1,500,0,prompt_fixation,poldrack-single-stim,49,121859,0.0-3.0-46.0,go_nogo_deval,440,,<div class = centerbox><div class = fixation>+</div></div>,none,500,practice,,,,,,,,,,,,298,32,850,0,stim,poldrack-single-stim,50,122711,0.0-3.0-47.0,go_nogo_deval,440,,<img class = center src='/static/experiments/go_nogo_deval/images/green_triangle.png'></img>,32,850,practice,green_triangle,nogo1,-1,15,0,,,,,,,-1,-1,1400,0,ITI,poldrack-single-stim,51,124112,0.0-3.0-48.0,go_nogo_deval,440,,<div></div>,32,1400,practice,,,,,,,,,,,,-1,-1,500,0,prompt_fixation,poldrack-single-stim,52,124614,0.0-3.0-49.0,go_nogo_deval,440,,<div class = centerbox><div class = fixation>+</div></div>,none,500,practice,,,,,,,,,,,,400,32,850,0,stim,poldrack-single-stim,53,125466,0.0-3.0-50.0,go_nogo_deval,440,,<img class = center src='/static/experiments/go_nogo_deval/images/green_triangle.png'></img>,32,850,practice,green_triangle,nogo1,-1,16,0,,,,,,,-1,-1,1400,0,ITI,poldrack-single-stim,54,126868,0.0-3.0-51.0,go_nogo_deval,440,,<div></div>,32,1400,practice,,,,,,,,,,,,-1,-1,500,0,prompt_fixation,poldrack-single-stim,55,127370,0.0-3.0-52.0,go_nogo_deval,440,,<div class = centerbox><div class = fixation>+</div></div>,none,500,practice,,,,,,,,,,,,-1,-1,850,0,stim,poldrack-single-stim,56,128223,0.0-3.0-53.0,go_nogo_deval,440,,<img class = center src='/static/experiments/go_nogo_deval/images/red_rhombus.png'></img>,32,850,practice,red_rhombus,nogo2,-1,17,0,,,,,,,-1,-1,1400,0,ITI,poldrack-single-stim,57,129625,0.0-3.0-54.0,go_nogo_deval,440,,<div></div>,32,1400,practice,,,,,,,,,,,,2769,13,2769,0,practice-no-stop-feedback,poldrack-single-stim,58,132395,0.0-4.0,go_nogo_deval,440,,<div class = centerbox><p class = block-text><br>Please take this time to read your feedback and to take a short break! Press enter to continue</p><p class = block-text><strong>Average reaction time:  387 ms. Accuracy: 89%</strong></p><p class = block-text>Done with this practice.</p></div>,13,2769,,,,,,,,,,,,,45844,13,45844,0,main_stop_intro_phase3,poldrack-single-stim,59,178240,0.0-5.0,go_nogo_deval,440,,"<div class = centerbox><p class = block-text>We will now start the main phase of the experiment.<br><br>These trials are the same as the trials that you have just completed. <br><br>The rules for each shape are as follows:  <br><ul list-text><li>pentagon: spacebar</li><li>circle: spacebar</li><li>triangle: no response</li><li>rhombus: no response</li></ul></p><p class = block-text>Remember these rules before you proceed, as they will no longer be presented during the trial.</p><p class = block-text>Press <strong> enter</strong> to begin.</p></div>",13,45844,,,,,,,,,,,,,5207,13,5207,0,practice-no-stop-feedback,poldrack-single-stim,60,183448,0.0-6.0-0.0,go_nogo_deval,440,,"<div class = centerbox><p class = block-text>We will now start with a test session. In this test, concentrate on responding quickly and accurately to each stimuli unless it requires no response.</p><p class = block-text>Press enter to continue.</p></div>",13,5207,,,,,,,,,,,,,-1,-1,500,0,fixation,poldrack-single-stim,61,183950,0.0-6.0-1.0,go_nogo_deval,440,,<div class = centerbox><div class = fixation>+</div></div>,none,500,test,,,,,,,,,,,,331,32,850,0,stim,poldrack-single-stim,62,184801,0.0-6.0-2.0,go_nogo_deval,440,,<img class = center src='/static/experiments/go_nogo_deval/images/green_triangle.png'></img>,32,850,test,green_triangle,nogo1,-1,0,0,,,,,,,-1,-1,1400,0,ITI,poldrack-single-stim,63,186203,0.0-6.0-3.0,go_nogo_deval,440,,<div></div>,32,1400,test,,,,,,,,,,,,-1,-1,500,0,fixation,poldrack-single-stim,64,186705,0.0-6.0-4.0,go_nogo_deval,440,,<div class = centerbox><div class = fixation>+</div></div>,none,500,test,,,,,,,,,,,,-1,-1,850,0,stim,poldrack-single-stim,65,187556,0.0-6.0-5.0,go_nogo_deval,440,,<img class = center src='/static/experiments/go_nogo_deval/images/red_rhombus.png'></img>,32,850,test,red_rhombus,nogo2,-1,1,0,,,,,,,-1,-1,1400,0,ITI,poldrack-single-stim,66,188958,0.0-6.0-6.0,go_nogo_deval,440,,<div></div>,32,1400,test,,,,,,,,,,,,-1,-1,500,0,fixation,poldrack-single-stim,67,189459,0.0-6.0-7.0,go_nogo_deval,440,,<div class = centerbox><div class = fixation>+</div></div>,none,500,test,,,,,,,,,,,,-1,-1,850,0,stim,poldrack-single-stim,68,190311,0.0-6.0-8.0,go_nogo_deval,440,,<img class = center src='/static/experiments/go_nogo_deval/images/red_rhombus.png'></img>,32,850,test,red_rhombus,nogo2,-1,2,0,,,,,,,-1,-1,1400,0,ITI,poldrack-single-stim,69,191713,0.0-6.0-9.0,go_nogo_deval,440,,<div></div>,32,1400,test,,,,,,,,,,,,-1,-1,500,0,fixation,poldrack-single-stim,70,192214,0.0-6.0-10.0,go_nogo_deval,440,,<div class = centerbox><div class = fixation>+</div></div>,none,500,test,,,,,,,,,,,,346,32,850,0,stim,poldrack-single-stim,71,193065,0.0-6.0-11.0,go_nogo_deval,440,,<img class = center src='/static/experiments/go_nogo_deval/images/blue_circle.png'></img>,32,850,test,blue_circle,go2,32,3,0,,,,,,,-1,-1,1400,0,ITI,poldrack-single-stim,72,194467,0.0-6.0-12.0,go_nogo_deval,440,,<div></div>,32,1400,test,,,,,,,,,,,,-1,-1,500,0,fixation,poldrack-single-stim,73,194969,0.0-6.0-13.0,go_nogo_deval,440,,<div class = centerbox><div class = fixation>+</div></div>,none,500,test,,,,,,,,,,,,494,32,850,0,stim,poldrack-single-stim,74,195820,0.0-6.0-14.0,go_nogo_deval,440,,<img class = center src='/static/experiments/go_nogo_deval/images/blue_circle.png'></img>,32,850,test,blue_circle,go2,32,4,0,,,,,,,-1,-1,1400,0,ITI,poldrack-single-stim,75,197221,0.0-6.0-15.0,go_nogo_deval,440,,<div></div>,32,1400,test,,,,,,,,,,,,-1,-1,500,0,fixation,poldrack-single-stim,76,197723,0.0-6.0-16.0,go_nogo_deval,440,,<div class = centerbox><div class = fixation>+</div></div>,none,500,test,,,,,,,,,,,,440,32,850,0,stim,poldrack-single-stim,77,198574,0.0-6.0-17.0,go_nogo_deval,440,,<img class = center src='/static/experiments/go_nogo_deval/images/blue_circle.png'></img>,32,850,test,blue_circle,go2,32,5,0,,,,,,,-1,-1,1400,0,ITI,poldrack-single-stim,78,199976,0.0-6.0-18.0,go_nogo_deval,440,,<div></div>,32,1400,test,,,,,,,,,,,,-1,-1,500,0,fixation,poldrack-single-stim,79,200478,0.0-6.0-19.0,go_nogo_deval,440,,<div class = centerbox><div class = fixation>+</div></div>,none,500,test,,,,,,,,,,,,385,32,850,0,stim,poldrack-single-stim,80,201329,0.0-6.0-20.0,go_nogo_deval,440,,<img class = center src='/static/experiments/go_nogo_deval/images/blue_circle.png'></img>,32,850,test,blue_circle,go2,32,6,0,,,,,,,-1,-1,1400,0,ITI,poldrack-single-stim,81,202730,0.0-6.0-21.0,go_nogo_deval,440,,<div></div>,32,1400,test,,,,,,,,,,,,-1,-1,500,0,fixation,poldrack-single-stim,82,203232,0.0-6.0-22.0,go_nogo_deval,440,,<div class = centerbox><div class = fixation>+</div></div>,none,500,test,,,,,,,,,,,,-1,-1,850,0,stim,poldrack-single-stim,83,204083,0.0-6.0-23.0,go_nogo_deval,440,,<img class = center src='/static/experiments/go_nogo_deval/images/green_triangle.png'></img>,32,850,test,green_triangle,nogo1,-1,7,0,,,,,,,-1,-1,1400,0,ITI,poldrack-single-stim,84,205485,0.0-6.0-24.0,go_nogo_deval,440,,<div></div>,32,1400,test,,,,,,,,,,,,-1,-1,500,0,fixation,poldrack-single-stim,85,205986,0.0-6.0-25.0,go_nogo_deval,440,,<div class = centerbox><div class = fixation>+</div></div>,none,500,test,,,,,,,,,,,,445,32,850,0,stim,poldrack-single-stim,86,206838,0.0-6.0-26.0,go_nogo_deval,440,,<img class = center src='/static/experiments/go_nogo_deval/images/purple_pentagon.png'></img>,32,850,test,purple_pentagon,go1,32,8,0,,,,,,,-1,-1,1400,0,ITI,poldrack-single-stim,87,208240,0.0-6.0-27.0,go_nogo_deval,440,,<div></div>,32,1400,test,,,,,,,,,,,,-1,-1,500,0,fixation,poldrack-single-stim,88,208742,0.0-6.0-28.0,go_nogo_deval,440,,<div class = centerbox><div class = fixation>+</div></div>,none,500,test,,,,,,,,,,,,-1,-1,850,0,stim,poldrack-single-stim,89,209593,0.0-6.0-29.0,go_nogo_deval,440,,<img class = center src='/static/experiments/go_nogo_deval/images/green_triangle.png'></img>,32,850,test,green_triangle,nogo1,-1,9,0,,,,,,,-1,-1,1400,0,ITI,poldrack-single-stim,90,210995,0.0-6.0-30.0,go_nogo_deval,440,,<div></div>,32,1400,test,,,,,,,,,,,,-1,-1,500,0,fixation,poldrack-single-stim,91,211496,0.0-6.0-31.0,go_nogo_deval,440,,<div class = centerbox><div class = fixation>+</div></div>,none,500,test,,,,,,,,,,,,447,32,850,0,stim,poldrack-single-stim,92,212349,0.0-6.0-32.0,go_nogo_deval,440,,<img class = center src='/static/experiments/go_nogo_deval/images/purple_pentagon.png'></img>,32,850,test,purple_pentagon,go1,32,10,0,,,,,,,-1,-1,1400,0,ITI,poldrack-single-stim,93,213750,0.0-6.0-33.0,go_nogo_deval,440,,<div></div>,32,1400,test,,,,,,,,,,,,-1,-1,500,0,fixation,poldrack-single-stim,94,214251,0.0-6.0-34.0,go_nogo_deval,440,,<div class = centerbox><div class = fixation>+</div></div>,none,500,test,,,,,,,,,,,,448,32,850,0,stim,poldrack-single-stim,95,215103,0.0-6.0-35.0,go_nogo_deval,440,,<img class = center src='/static/experiments/go_nogo_deval/images/purple_pentagon.png'></img>,32,850,test,purple_pentagon,go1,32,11,0,,,,,,,-1,-1,1400,0,ITI,poldrack-single-stim,96,216505,0.0-6.0-36.0,go_nogo_deval,440,,<div></div>,32,1400,test,,,,,,,,,,,,-1,-1,500,0,fixation,poldrack-single-stim,97,217007,0.0-6.0-37.0,go_nogo_deval,440,,<div class = centerbox><div class = fixation>+</div></div>,none,500,test,,,,,,,,,,,,428,32,850,0,stim,poldrack-single-stim,98,217859,0.0-6.0-38.0,go_nogo_deval,440,,<img class = center src='/static/experiments/go_nogo_deval/images/blue_circle.png'></img>,32,850,test,blue_circle,go2,32,12,0,,,,,,,-1,-1,1400,0,ITI,poldrack-single-stim,99,219261,0.0-6.0-39.0,go_nogo_deval,440,,<div></div>,32,1400,test,,,,,,,,,,,,-1,-1,500,0,fixation,poldrack-single-stim,100,219763,0.0-6.0-40.0,go_nogo_deval,440,,<div class = centerbox><div class = fixation>+</div></div>,none,500,test,,,,,,,,,,,,383,32,850,0,stim,poldrack-single-stim,101,220614,0.0-6.0-41.0,go_nogo_deval,440,,<img class = center src='/static/experiments/go_nogo_deval/images/purple_pentagon.png'></img>,32,850,test,purple_pentagon,go1,32,13,0,,,,,,,-1,-1,1400,0,ITI,poldrack-single-stim,102,222016,0.0-6.0-42.0,go_nogo_deval,440,,<div></div>,32,1400,test,,,,,,,,,,,,-1,-1,500,0,fixation,poldrack-single-stim,103,222517,0.0-6.0-43.0,go_nogo_deval,440,,<div class = centerbox><div class = fixation>+</div></div>,none,500,test,,,,,,,,,,,,340,32,850,0,stim,poldrack-single-stim,104,223369,0.0-6.0-44.0,go_nogo_deval,440,,<img class = center src='/static/experiments/go_nogo_deval/images/purple_pentagon.png'></img>,32,850,test,purple_pentagon,go1,32,14,0,,,,,,,-1,-1,1400,0,ITI,poldrack-single-stim,105,224771,0.0-6.0-45.0,go_nogo_deval,440,,<div></div>,32,1400,test,,,,,,,,,,,,-1,-1,500,0,fixation,poldrack-single-stim,106,225272,0.0-6.0-46.0,go_nogo_deval,440,,<div class = centerbox><div class = fixation>+</div></div>,none,500,test,,,,,,,,,,,,441,32,850,0,stim,poldrack-single-stim,107,226124,0.0-6.0-47.0,go_nogo_deval,440,,<img class = center src='/static/experiments/go_nogo_deval/images/blue_circle.png'></img>,32,850,test,blue_circle,go2,32,15,0,,,,,,,-1,-1,1400,0,ITI,poldrack-single-stim,108,227527,0.0-6.0-48.0,go_nogo_deval,440,,<div></div>,32,1400,test,,,,,,,,,,,,-1,-1,500,0,fixation,poldrack-single-stim,109,228028,0.0-6.0-49.0,go_nogo_deval,440,,<div class = centerbox><div class = fixation>+</div></div>,none,500,test,,,,,,,,,,,,386,32,850,0,stim,poldrack-single-stim,110,228879,0.0-6.0-50.0,go_nogo_deval,440,,<img class = center src='/static/experiments/go_nogo_deval/images/blue_circle.png'></img>,32,850,test,blue_circle,go2,32,16,0,,,,,,,-1,-1,1400,0,ITI,poldrack-single-stim,111,230281,0.0-6.0-51.0,go_nogo_deval,440,,<div></div>,32,1400,test,,,,,,,,,,,,-1,-1,500,0,fixation,poldrack-single-stim,112,230782,0.0-6.0-52.0,go_nogo_deval,440,,<div class = centerbox><div class = fixation>+</div></div>,none,500,test,,,,,,,,,,,,344,32,850,0,stim,poldrack-single-stim,113,231634,0.0-6.0-53.0,go_nogo_deval,440,,<img class = center src='/static/experiments/go_nogo_deval/images/blue_circle.png'></img>,32,850,test,blue_circle,go2,32,17,0,,,,,,,-1,-1,1400,0,ITI,poldrack-single-stim,114,233036,0.0-6.0-54.0,go_nogo_deval,440,,<div></div>,32,1400,test,,,,,,,,,,,,-1,-1,500,0,fixation,poldrack-single-stim,115,233538,0.0-6.0-55.0,go_nogo_deval,440,,<div class = centerbox><div class = fixation>+</div></div>,none,500,test,,,,,,,,,,,,276,32,850,0,stim,poldrack-single-stim,116,234389,0.0-6.0-56.0,go_nogo_deval,440,,<img class = center src='/static/experiments/go_nogo_deval/images/blue_circle.png'></img>,32,850,test,blue_circle,go2,32,18,0,,,,,,,-1,-1,1400,0,ITI,poldrack-single-stim,117,235791,0.0-6.0-57.0,go_nogo_deval,440,,<div></div>,32,1400,test,,,,,,,,,,,,-1,-1,500,0,fixation,poldrack-single-stim,118,236293,0.0-6.0-58.0,go_nogo_deval,440,,<div class = centerbox><div class = fixation>+</div></div>,none,500,test,,,,,,,,,,,,-1,-1,850,0,stim,poldrack-single-stim,119,237145,0.0-6.0-59.0,go_nogo_deval,440,,<img class = center src='/static/experiments/go_nogo_deval/images/red_rhombus.png'></img>,32,850,test,red_rhombus,nogo2,-1,19,0,,,,,,,-1,-1,1400,0,ITI,poldrack-single-stim,120,238545,0.0-6.0-60.0,go_nogo_deval,440,,<div></div>,32,1400,test,,,,,,,,,,,,-1,-1,500,0,fixation,poldrack-single-stim,121,239046,0.0-6.0-61.0,go_nogo_deval,440,,<div class = centerbox><div class = fixation>+</div></div>,none,500,test,,,,,,,,,,,,-1,-1,850,0,stim,poldrack-single-stim,122,239898,0.0-6.0-62.0,go_nogo_deval,440,,<img class = center src='/static/experiments/go_nogo_deval/images/green_triangle.png'></img>,32,850,test,green_triangle,nogo1,-1,20,0,,,,,,,-1,-1,1400,0,ITI,poldrack-single-stim,123,241300,0.0-6.0-63.0,go_nogo_deval,440,,<div></div>,32,1400,test,,,,,,,,,,,,-1,-1,500,0,fixation,poldrack-single-stim,124,241800,0.0-6.0-64.0,go_nogo_deval,440,,<div class = centerbox><div class = fixation>+</div></div>,none,500,test,,,,,,,,,,,,418,32,850,0,stim,poldrack-single-stim,125,242652,0.0-6.0-65.0,go_nogo_deval,440,,<img class = center src='/static/experiments/go_nogo_deval/images/purple_pentagon.png'></img>,32,850,test,purple_pentagon,go1,32,21,0,,,,,,,-1,-1,1400,0,ITI,poldrack-single-stim,126,244054,0.0-6.0-66.0,go_nogo_deval,440,,<div></div>,32,1400,test,,,,,,,,,,,,-1,-1,500,0,fixation,poldrack-single-stim,127,244556,0.0-6.0-67.0,go_nogo_deval,440,,<div class = centerbox><div class = fixation>+</div></div>,none,500,test,,,,,,,,,,,,464,32,850,0,stim,poldrack-single-stim,128,245407,0.0-6.0-68.0,go_nogo_deval,440,,<img class = center src='/static/experiments/go_nogo_deval/images/blue_circle.png'></img>,32,850,test,blue_circle,go2,32,22,0,,,,,,,-1,-1,1400,0,ITI,poldrack-single-stim,129,246808,0.0-6.0-69.0,go_nogo_deval,440,,<div></div>,32,1400,test,,,,,,,,,,,,-1,-1,500,0,fixation,poldrack-single-stim,130,247310,0.0-6.0-70.0,go_nogo_deval,440,,<div class = centerbox><div class = fixation>+</div></div>,none,500,test,,,,,,,,,,,,-1,-1,850,0,stim,poldrack-single-stim,131,248163,0.0-6.0-71.0,go_nogo_deval,440,,<img class = center src='/static/experiments/go_nogo_deval/images/red_rhombus.png'></img>,32,850,test,red_rhombus,nogo2,-1,23,0,,,,,,,-1,-1,1400,0,ITI,poldrack-single-stim,132,249565,0.0-6.0-72.0,go_nogo_deval,440,,<div></div>,32,1400,test,,,,,,,,,,,,-1,-1,500,0,fixation,poldrack-single-stim,133,250068,0.0-6.0-73.0,go_nogo_deval,440,,<div class = centerbox><div class = fixation>+</div></div>,none,500,test,,,,,,,,,,,,419,32,850,0,stim,poldrack-single-stim,134,250920,0.0-6.0-74.0,go_nogo_deval,440,,<img class = center src='/static/experiments/go_nogo_deval/images/blue_circle.png'></img>,32,850,test,blue_circle,go2,32,24,0,,,,,,,-1,-1,1400,0,ITI,poldrack-single-stim,135,252321,0.0-6.0-75.0,go_nogo_deval,440,,<div></div>,32,1400,test,,,,,,,,,,,,-1,-1,500,0,fixation,poldrack-single-stim,136,252823,0.0-6.0-76.0,go_nogo_deval,440,,<div class = centerbox><div class = fixation>+</div></div>,none,500,test,,,,,,,,,,,,375,32,850,0,stim,poldrack-single-stim,137,253675,0.0-6.0-77.0,go_nogo_deval,440,,<img class = center src='/static/experiments/go_nogo_deval/images/blue_circle.png'></img>,32,850,test,blue_circle,go2,32,25,0,,,,,,,-1,-1,1400,0,ITI,poldrack-single-stim,138,255077,0.0-6.0-78.0,go_nogo_deval,440,,<div></div>,32,1400,test,,,,,,,,,,,,-1,-1,500,0,fixation,poldrack-single-stim,139,255578,0.0-6.0-79.0,go_nogo_deval,440,,<div class = centerbox><div class = fixation>+</div></div>,none,500,test,,,,,,,,,,,,410,32,850,0,stim,poldrack-single-stim,140,256430,0.0-6.0-80.0,go_nogo_deval,440,,<img class = center src='/static/experiments/go_nogo_deval/images/purple_pentagon.png'></img>,32,850,test,purple_pentagon,go1,32,26,0,,,,,,,-1,-1,1400,0,ITI,poldrack-single-stim,141,257832,0.0-6.0-81.0,go_nogo_deval,440,,<div></div>,32,1400,test,,,,,,,,,,,,-1,-1,500,0,fixation,poldrack-single-stim,142,258333,0.0-6.0-82.0,go_nogo_deval,440,,<div class = centerbox><div class = fixation>+</div></div>,none,500,test,,,,,,,,,,,,-1,-1,850,0,stim,poldrack-single-stim,143,259186,0.0-6.0-83.0,go_nogo_deval,440,,<img class = center src='/static/experiments/go_nogo_deval/images/green_triangle.png'></img>,32,850,test,green_triangle,nogo1,-1,27,0,,,,,,,-1,-1,1400,0,ITI,poldrack-single-stim,144,260587,0.0-6.0-84.0,go_nogo_deval,440,,<div></div>,32,1400,test,,,,,,,,,,,,-1,-1,500,0,fixation,poldrack-single-stim,145,261089,0.0-6.0-85.0,go_nogo_deval,440,,<div class = centerbox><div class = fixation>+</div></div>,none,500,test,,,,,,,,,,,,-1,-1,850,0,stim,poldrack-single-stim,146,261941,0.0-6.0-86.0,go_nogo_deval,440,,<img class = center src='/static/experiments/go_nogo_deval/images/red_rhombus.png'></img>,32,850,test,red_rhombus,nogo2,-1,28,0,,,,,,,-1,-1,1400,0,ITI,poldrack-single-stim,147,263343,0.0-6.0-87.0,go_nogo_deval,440,,<div></div>,32,1400,test,,,,,,,,,,,,-1,-1,500,0,fixation,poldrack-single-stim,148,263844,0.0-6.0-88.0,go_nogo_deval,440,,<div class = centerbox><div class = fixation>+</div></div>,none,500,test,,,,,,,,,,,,470,32,850,0,stim,poldrack-single-stim,149,264696,0.0-6.0-89.0,go_nogo_deval,440,,<img class = center src='/static/experiments/go_nogo_deval/images/purple_pentagon.png'></img>,32,850,test,purple_pentagon,go1,32,29,0,,,,,,,-1,-1,1400,0,ITI,poldrack-single-stim,150,266097,0.0-6.0-90.0,go_nogo_deval,440,,<div></div>,32,1400,test,,,,,,,,,,,,-1,-1,500,0,fixation,poldrack-single-stim,151,266598,0.0-6.0-91.0,go_nogo_deval,440,,<div class = centerbox><div class = fixation>+</div></div>,none,500,test,,,,,,,,,,,,-1,-1,850,0,stim,poldrack-single-stim,152,267451,0.0-6.0-92.0,go_nogo_deval,440,,<img class = center src='/static/experiments/go_nogo_deval/images/red_rhombus.png'></img>,32,850,test,red_rhombus,nogo2,-1,30,0,,,,,,,-1,-1,1400,0,ITI,poldrack-single-stim,153,268852,0.0-6.0-93.0,go_nogo_deval,440,,<div></div>,32,1400,test,,,,,,,,,,,,-1,-1,500,0,fixation,poldrack-single-stim,154,269354,0.0-6.0-94.0,go_nogo_deval,440,,<div class = centerbox><div class = fixation>+</div></div>,none,500,test,,,,,,,,,,,,-1,-1,850,0,stim,poldrack-single-stim,155,270204,0.0-6.0-95.0,go_nogo_deval,440,,<img class = center src='/static/experiments/go_nogo_deval/images/red_rhombus.png'></img>,32,850,test,red_rhombus,nogo2,-1,31,0,,,,,,,-1,-1,1400,0,ITI,poldrack-single-stim,156,271605,0.0-6.0-96.0,go_nogo_deval,440,,<div></div>,32,1400,test,,,,,,,,,,,,-1,-1,500,0,fixation,poldrack-single-stim,157,272107,0.0-6.0-97.0,go_nogo_deval,440,,<div class = centerbox><div class = fixation>+</div></div>,none,500,test,,,,,,,,,,,,497,32,850,0,stim,poldrack-single-stim,158,272959,0.0-6.0-98.0,go_nogo_deval,440,,<img class = center src='/static/experiments/go_nogo_deval/images/purple_pentagon.png'></img>,32,850,test,purple_pentagon,go1,32,32,0,,,,,,,-1,-1,1400,0,ITI,poldrack-single-stim,159,274361,0.0-6.0-99.0,go_nogo_deval,440,,<div></div>,32,1400,test,,,,,,,,,,,,-1,-1,500,0,fixation,poldrack-single-stim,160,274862,0.0-6.0-100.0,go_nogo_deval,440,,<div class = centerbox><div class = fixation>+</div></div>,none,500,test,,,,,,,,,,,,498,32,850,0,stim,poldrack-single-stim,161,275713,0.0-6.0-101.0,go_nogo_deval,440,,<img class = center src='/static/experiments/go_nogo_deval/images/purple_pentagon.png'></img>,32,850,test,purple_pentagon,go1,32,33,0,,,,,,,-1,-1,1400,0,ITI,poldrack-single-stim,162,277115,0.0-6.0-102.0,go_nogo_deval,440,,<div></div>,32,1400,test,,,,,,,,,,,,-1,-1,500,0,fixation,poldrack-single-stim,163,277617,0.0-6.0-103.0,go_nogo_deval,440,,<div class = centerbox><div class = fixation>+</div></div>,none,500,test,,,,,,,,,,,,455,32,850,0,stim,poldrack-single-stim,164,278469,0.0-6.0-104.0,go_nogo_deval,440,,<img class = center src='/static/experiments/go_nogo_deval/images/blue_circle.png'></img>,32,850,test,blue_circle,go2,32,34,0,,,,,,,-1,-1,1400,0,ITI,poldrack-single-stim,165,279871,0.0-6.0-105.0,go_nogo_deval,440,,<div></div>,32,1400,test,,,,,,,,,,,,-1,-1,500,0,fixation,poldrack-single-stim,166,280372,0.0-6.0-106.0,go_nogo_deval,440,,<div class = centerbox><div class = fixation>+</div></div>,none,500,test,,,,,,,,,,,,535,32,850,0,stim,poldrack-single-stim,167,281223,0.0-6.0-107.0,go_nogo_deval,440,,<img class = center src='/static/experiments/go_nogo_deval/images/purple_pentagon.png'></img>,32,850,test,purple_pentagon,go1,32,35,0,,,,,,,-1,-1,1400,0,ITI,poldrack-single-stim,168,282625,0.0-6.0-108.0,go_nogo_deval,440,,<div></div>,32,1400,test,,,,,,,,,,,,-1,-1,500,0,fixation,poldrack-single-stim,169,283127,0.0-6.0-109.0,go_nogo_deval,440,,<div class = centerbox><div class = fixation>+</div></div>,none,500,test,,,,,,,,,,,,-1,-1,850,0,stim,poldrack-single-stim,170,283979,0.0-6.0-110.0,go_nogo_deval,440,,<img class = center src='/static/experiments/go_nogo_deval/images/green_triangle.png'></img>,32,850,test,green_triangle,nogo1,-1,36,0,,,,,,,-1,-1,1400,0,ITI,poldrack-single-stim,171,285381,0.0-6.0-111.0,go_nogo_deval,440,,<div></div>,32,1400,test,,,,,,,,,,,,-1,-1,500,0,fixation,poldrack-single-stim,172,285883,0.0-6.0-112.0,go_nogo_deval,440,,<div class = centerbox><div class = fixation>+</div></div>,none,500,test,,,,,,,,,,,,-1,-1,850,0,stim,poldrack-single-stim,173,286734,0.0-6.0-113.0,go_nogo_deval,440,,<img class = center src='/static/experiments/go_nogo_deval/images/red_rhombus.png'></img>,32,850,test,red_rhombus,nogo2,-1,37,0,,,,,,,-1,-1,1400,0,ITI,poldrack-single-stim,174,288135,0.0-6.0-114.0,go_nogo_deval,440,,<div></div>,32,1400,test,,,,,,,,,,,,-1,-1,500,0,fixation,poldrack-single-stim,175,288636,0.0-6.0-115.0,go_nogo_deval,440,,<div class = centerbox><div class = fixation>+</div></div>,none,500,test,,,,,,,,,,,,-1,-1,850,0,stim,poldrack-single-stim,176,289488,0.0-6.0-116.0,go_nogo_deval,440,,<img class = center src='/static/experiments/go_nogo_deval/images/green_triangle.png'></img>,32,850,test,green_triangle,nogo1,-1,38,0,,,,,,,-1,-1,1400,0,ITI,poldrack-single-stim,177,290890,0.0-6.0-117.0,go_nogo_deval,440,,<div></div>,32,1400,test,,,,,,,,,,,,-1,-1,500,0,fixation,poldrack-single-stim,178,291391,0.0-6.0-118.0,go_nogo_deval,440,,<div class = centerbox><div class = fixation>+</div></div>,none,500,test,,,,,,,,,,,,452,32,850,0,stim,poldrack-single-stim,179,292243,0.0-6.0-119.0,go_nogo_deval,440,,<img class = center src='/static/experiments/go_nogo_deval/images/blue_circle.png'></img>,32,850,test,blue_circle,go2,32,39,0,,,,,,,-1,-1,1400,0,ITI,poldrack-single-stim,180,293644,0.0-6.0-120.0,go_nogo_deval,440,,<div></div>,32,1400,test,,,,,,,,,,,,-1,-1,500,0,fixation,poldrack-single-stim,181,294146,0.0-6.0-121.0,go_nogo_deval,440,,<div class = centerbox><div class = fixation>+</div></div>,none,500,test,,,,,,,,,,,,531,32,850,0,stim,poldrack-single-stim,182,294998,0.0-6.0-122.0,go_nogo_deval,440,,<img class = center src='/static/experiments/go_nogo_deval/images/purple_pentagon.png'></img>,32,850,test,purple_pentagon,go1,32,40,0,,,,,,,-1,-1,1400,0,ITI,poldrack-single-stim,183,296399,0.0-6.0-123.0,go_nogo_deval,440,,<div></div>,32,1400,test,,,,,,,,,,,,-1,-1,500,0,fixation,poldrack-single-stim,184,296900,0.0-6.0-124.0,go_nogo_deval,440,,<div class = centerbox><div class = fixation>+</div></div>,none,500,test,,,,,,,,,,,,444,32,850,0,stim,poldrack-single-stim,185,297752,0.0-6.0-125.0,go_nogo_deval,440,,<img class = center src='/static/experiments/go_nogo_deval/images/purple_pentagon.png'></img>,32,850,test,purple_pentagon,go1,32,41,0,,,,,,,-1,-1,1400,0,ITI,poldrack-single-stim,186,299154,0.0-6.0-126.0,go_nogo_deval,440,,<div></div>,32,1400,test,,,,,,,,,,,,-1,-1,500,0,fixation,poldrack-single-stim,187,299656,0.0-6.0-127.0,go_nogo_deval,440,,<div class = centerbox><div class = fixation>+</div></div>,none,500,test,,,,,,,,,,,,399,32,850,0,stim,poldrack-single-stim,188,300508,0.0-6.0-128.0,go_nogo_deval,440,,<img class = center src='/static/experiments/go_nogo_deval/images/blue_circle.png'></img>,32,850,test,blue_circle,go2,32,42,0,,,,,,,-1,-1,1400,0,ITI,poldrack-single-stim,189,301910,0.0-6.0-129.0,go_nogo_deval,440,,<div></div>,32,1400,test,,,,,,,,,,,,-1,-1,500,0,fixation,poldrack-single-stim,190,302411,0.0-6.0-130.0,go_nogo_deval,440,,<div class = centerbox><div class = fixation>+</div></div>,none,500,test,,,,,,,,,,,,-1,-1,850,0,stim,poldrack-single-stim,191,303262,0.0-6.0-131.0,go_nogo_deval,440,,<img class = center src='/static/experiments/go_nogo_deval/images/green_triangle.png'></img>,32,850,test,green_triangle,nogo1,-1,43,0,,,,,,,-1,-1,1400,0,ITI,poldrack-single-stim,192,304664,0.0-6.0-132.0,go_nogo_deval,440,,<div></div>,32,1400,test,,,,,,,,,,,,-1,-1,500,0,fixation,poldrack-single-stim,193,305166,0.0-6.0-133.0,go_nogo_deval,440,,<div class = centerbox><div class = fixation>+</div></div>,none,500,test,,,,,,,,,,,,481,32,850,0,stim,poldrack-single-stim,194,306018,0.0-6.0-134.0,go_nogo_deval,440,,<img class = center src='/static/experiments/go_nogo_deval/images/purple_pentagon.png'></img>,32,850,test,purple_pentagon,go1,32,44,0,,,,,,,-1,-1,1400,0,ITI,poldrack-single-stim,195,307418,0.0-6.0-135.0,go_nogo_deval,440,,<div></div>,32,1400,test,,,,,,,,,,,,-1,-1,500,0,fixation,poldrack-single-stim,196,307920,0.0-6.0-136.0,go_nogo_deval,440,,<div class = centerbox><div class = fixation>+</div></div>,none,500,test,,,,,,,,,,,,393,32,850,0,stim,poldrack-single-stim,197,308772,0.0-6.0-137.0,go_nogo_deval,440,,<img class = center src='/static/experiments/go_nogo_deval/images/purple_pentagon.png'></img>,32,850,test,purple_pentagon,go1,32,45,0,,,,,,,-1,-1,1400,0,ITI,poldrack-single-stim,198,310174,0.0-6.0-138.0,go_nogo_deval,440,,<div></div>,32,1400,test,,,,,,,,,,,,-1,-1,500,0,fixation,poldrack-single-stim,199,310675,0.0-6.0-139.0,go_nogo_deval,440,,<div class = centerbox><div class = fixation>+</div></div>,none,500,test,,,,,,,,,,,,450,32,850,0,stim,poldrack-single-stim,200,311527,0.0-6.0-140.0,go_nogo_deval,440,,<img class = center src='/static/experiments/go_nogo_deval/images/blue_circle.png'></img>,32,850,test,blue_circle,go2,32,46,0,,,,,,,-1,-1,1400,0,ITI,poldrack-single-stim,201,312929,0.0-6.0-141.0,go_nogo_deval,440,,<div></div>,32,1400,test,,,,,,,,,,,,-1,-1,500,0,fixation,poldrack-single-stim,202,313429,0.0-6.0-142.0,go_nogo_deval,440,,<div class = centerbox><div class = fixation>+</div></div>,none,500,test,,,,,,,,,,,,395,32,850,0,stim,poldrack-single-stim,203,314281,0.0-6.0-143.0,go_nogo_deval,440,,<img class = center src='/static/experiments/go_nogo_deval/images/purple_pentagon.png'></img>,32,850,test,purple_pentagon,go1,32,47,0,,,,,,,-1,-1,1400,0,ITI,poldrack-single-stim,204,315683,0.0-6.0-144.0,go_nogo_deval,440,,<div></div>,32,1400,test,,,,,,,,,,,,10919,13,10919,0,practice-no-stop-feedback,poldrack-single-stim,205,326606,0.0-6.1-0.1,go_nogo_deval,440,,<div class = centerbox><p class = block-text><br>Please take this time to read your feedback and to take a short break! Press enter to continue</p><p class = block-text><strong>Average reaction time:  425 ms. Accuracy: 98%</strong></p></div>,13,10919,,,,,,,,,,,,,-1,-1,500,0,fixation,poldrack-single-stim,206,327108,0.0-6.1-1.1,go_nogo_deval,440,,<div class = centerbox><div class = fixation>+</div></div>,none,500,test,,,,,,,,,,,,352,32,850,0,stim,poldrack-single-stim,207,327960,0.0-6.1-2.1,go_nogo_deval,440,,<img class = center src='/static/experiments/go_nogo_deval/images/blue_circle.png'></img>,32,850,test,blue_circle,go2,32,0,1,,,,,,,-1,-1,1400,0,ITI,poldrack-single-stim,208,329361,0.0-6.1-3.1,go_nogo_deval,440,,<div></div>,32,1400,test,,,,,,,,,,,,-1,-1,500,0,fixation,poldrack-single-stim,209,329862,0.0-6.1-4.1,go_nogo_deval,440,,<div class = centerbox><div class = fixation>+</div></div>,none,500,test,,,,,,,,,,,,410,32,850,0,stim,poldrack-single-stim,210,330714,0.0-6.1-5.1,go_nogo_deval,440,,<img class = center src='/static/experiments/go_nogo_deval/images/purple_pentagon.png'></img>,32,850,test,purple_pentagon,go1,32,1,1,,,,,,,-1,-1,1400,0,ITI,poldrack-single-stim,211,332116,0.0-6.1-6.1,go_nogo_deval,440,,<div></div>,32,1400,test,,,,,,,,,,,,-1,-1,500,0,fixation,poldrack-single-stim,212,332617,0.0-6.1-7.1,go_nogo_deval,440,,<div class = centerbox><div class = fixation>+</div></div>,none,500,test,,,,,,,,,,,,-1,-1,850,0,stim,poldrack-single-stim,213,333469,0.0-6.1-8.1,go_nogo_deval,440,,<img class = center src='/static/experiments/go_nogo_deval/images/red_rhombus.png'></img>,32,850,test,red_rhombus,nogo2,-1,2,1,,,,,,,-1,-1,1400,0,ITI,poldrack-single-stim,214,334870,0.0-6.1-9.1,go_nogo_deval,440,,<div></div>,32,1400,test,,,,,,,,,,,,-1,-1,500,0,fixation,poldrack-single-stim,215,335372,0.0-6.1-10.1,go_nogo_deval,440,,<div class = centerbox><div class = fixation>+</div></div>,none,500,test,,,,,,,,,,,,436,32,850,0,stim,poldrack-single-stim,216,336224,0.0-6.1-11.1,go_nogo_deval,440,,<img class = center src='/static/experiments/go_nogo_deval/images/blue_circle.png'></img>,32,850,test,blue_circle,go2,32,3,1,,,,,,,-1,-1,1400,0,ITI,poldrack-single-stim,217,337626,0.0-6.1-12.1,go_nogo_deval,440,,<div></div>,32,1400,test,,,,,,,,,,,,-1,-1,500,0,fixation,poldrack-single-stim,218,338128,0.0-6.1-13.1,go_nogo_deval,440,,<div class = centerbox><div class = fixation>+</div></div>,none,500,test,,,,,,,,,,,,324,32,850,0,stim,poldrack-single-stim,219,338979,0.0-6.1-14.1,go_nogo_deval,440,,<img class = center src='/static/experiments/go_nogo_deval/images/blue_circle.png'></img>,32,850,test,blue_circle,go2,32,4,1,,,,,,,-1,-1,1400,0,ITI,poldrack-single-stim,220,340381,0.0-6.1-15.1,go_nogo_deval,440,,<div></div>,32,1400,test,,,,,,,,,,,,-1,-1,500,0,fixation,poldrack-single-stim,221,340882,0.0-6.1-16.1,go_nogo_deval,440,,<div class = centerbox><div class = fixation>+</div></div>,none,500,test,,,,,,,,,,,,303,32,850,0,stim,poldrack-single-stim,222,341734,0.0-6.1-17.1,go_nogo_deval,440,,<img class = center src='/static/experiments/go_nogo_deval/images/green_triangle.png'></img>,32,850,test,green_triangle,nogo1,-1,5,1,,,,,,,-1,-1,1400,0,ITI,poldrack-single-stim,223,343135,0.0-6.1-18.1,go_nogo_deval,440,,<div></div>,32,1400,test,,,,,,,,,,,,-1,-1,500,0,fixation,poldrack-single-stim,224,343637,0.0-6.1-19.1,go_nogo_deval,440,,<div class = centerbox><div class = fixation>+</div></div>,none,500,test,,,,,,,,,,,,-1,-1,850,0,stim,poldrack-single-stim,225,344487,0.0-6.1-20.1,go_nogo_deval,440,,<img class = center src='/static/experiments/go_nogo_deval/images/red_rhombus.png'></img>,32,850,test,red_rhombus,nogo2,-1,6,1,,,,,,,-1,-1,1400,0,ITI,poldrack-single-stim,226,345889,0.0-6.1-21.1,go_nogo_deval,440,,<div></div>,32,1400,test,,,,,,,,,,,,-1,-1,500,0,fixation,poldrack-single-stim,227,346390,0.0-6.1-22.1,go_nogo_deval,440,,<div class = centerbox><div class = fixation>+</div></div>,none,500,test,,,,,,,,,,,,409,32,850,0,stim,poldrack-single-stim,228,347242,0.0-6.1-23.1,go_nogo_deval,440,,<img class = center src='/static/experiments/go_nogo_deval/images/purple_pentagon.png'></img>,32,850,test,purple_pentagon,go1,32,7,1,,,,,,,-1,-1,1400,0,ITI,poldrack-single-stim,229,348644,0.0-6.1-24.1,go_nogo_deval,440,,<div></div>,32,1400,test,,,,,,,,,,,,-1,-1,500,0,fixation,poldrack-single-stim,230,349145,0.0-6.1-25.1,go_nogo_deval,440,,<div class = centerbox><div class = fixation>+</div></div>,none,500,test,,,,,,,,,,,,-1,-1,850,0,stim,poldrack-single-stim,231,349996,0.0-6.1-26.1,go_nogo_deval,440,,<img class = center src='/static/experiments/go_nogo_deval/images/green_triangle.png'></img>,32,850,test,green_triangle,nogo1,-1,8,1,,,,,,,-1,-1,1400,0,ITI,poldrack-single-stim,232,351397,0.0-6.1-27.1,go_nogo_deval,440,,<div></div>,32,1400,test,,,,,,,,,,,,-1,-1,500,0,fixation,poldrack-single-stim,233,351899,0.0-6.1-28.1,go_nogo_deval,440,,<div class = centerbox><div class = fixation>+</div></div>,none,500,test,,,,,,,,,,,,548,32,850,0,stim,poldrack-single-stim,234,352751,0.0-6.1-29.1,go_nogo_deval,440,,<img class = center src='/static/experiments/go_nogo_deval/images/purple_pentagon.png'></img>,32,850,test,purple_pentagon,go1,32,9,1,,,,,,,-1,-1,1400,0,ITI,poldrack-single-stim,235,354152,0.0-6.1-30.1,go_nogo_deval,440,,<div></div>,32,1400,test,,,,,,,,,,,,-1,-1,500,0,fixation,poldrack-single-stim,236,354654,0.0-6.1-31.1,go_nogo_deval,440,,<div class = centerbox><div class = fixation>+</div></div>,none,500,test,,,,,,,,,,,,414,32,850,0,stim,poldrack-single-stim,237,355505,0.0-6.1-32.1,go_nogo_deval,440,,<img class = center src='/static/experiments/go_nogo_deval/images/blue_circle.png'></img>,32,850,test,blue_circle,go2,32,10,1,,,,,,,-1,-1,1400,0,ITI,poldrack-single-stim,238,356907,0.0-6.1-33.1,go_nogo_deval,440,,<div></div>,32,1400,test,,,,,,,,,,,,-1,-1,500,0,fixation,poldrack-single-stim,239,357407,0.0-6.1-34.1,go_nogo_deval,440,,<div class = centerbox><div class = fixation>+</div></div>,none,500,test,,,,,,,,,,,,484,32,850,0,stim,poldrack-single-stim,240,358259,0.0-6.1-35.1,go_nogo_deval,440,,<img class = center src='/static/experiments/go_nogo_deval/images/purple_pentagon.png'></img>,32,850,test,purple_pentagon,go1,32,11,1,,,,,,,-1,-1,1400,0,ITI,poldrack-single-stim,241,359661,0.0-6.1-36.1,go_nogo_deval,440,,<div></div>,32,1400,test,,,,,,,,,,,,-1,-1,500,0,fixation,poldrack-single-stim,242,360163,0.0-6.1-37.1,go_nogo_deval,440,,<div class = centerbox><div class = fixation>+</div></div>,none,500,test,,,,,,,,,,,,417,32,850,0,stim,poldrack-single-stim,243,361015,0.0-6.1-38.1,go_nogo_deval,440,,<img class = center src='/static/experiments/go_nogo_deval/images/purple_pentagon.png'></img>,32,850,test,purple_pentagon,go1,32,12,1,,,,,,,-1,-1,1400,0,ITI,poldrack-single-stim,244,362417,0.0-6.1-39.1,go_nogo_deval,440,,<div></div>,32,1400,test,,,,,,,,,,,,-1,-1,500,0,fixation,poldrack-single-stim,245,362918,0.0-6.1-40.1,go_nogo_deval,440,,<div class = centerbox><div class = fixation>+</div></div>,none,500,test,,,,,,,,,,,,-1,-1,850,0,stim,poldrack-single-stim,246,363769,0.0-6.1-41.1,go_nogo_deval,440,,<img class = center src='/static/experiments/go_nogo_deval/images/green_triangle.png'></img>,32,850,test,green_triangle,nogo1,-1,13,1,,,,,,,-1,-1,1400,0,ITI,poldrack-single-stim,247,365170,0.0-6.1-42.1,go_nogo_deval,440,,<div></div>,32,1400,test,,,,,,,,,,,,-1,-1,500,0,fixation,poldrack-single-stim,248,365672,0.0-6.1-43.1,go_nogo_deval,440,,<div class = centerbox><div class = fixation>+</div></div>,none,500,test,,,,,,,,,,,,466,32,850,0,stim,poldrack-single-stim,249,366523,0.0-6.1-44.1,go_nogo_deval,440,,<img class = center src='/static/experiments/go_nogo_deval/images/purple_pentagon.png'></img>,32,850,test,purple_pentagon,go1,32,14,1,,,,,,,-1,-1,1400,0,ITI,poldrack-single-stim,250,367925,0.0-6.1-45.1,go_nogo_deval,440,,<div></div>,32,1400,test,,,,,,,,,,,,-1,-1,500,0,fixation,poldrack-single-stim,251,368426,0.0-6.1-46.1,go_nogo_deval,440,,<div class = centerbox><div class = fixation>+</div></div>,none,500,test,,,,,,,,,,,,435,32,850,0,stim,poldrack-single-stim,252,369278,0.0-6.1-47.1,go_nogo_deval,440,,<img class = center src='/static/experiments/go_nogo_deval/images/purple_pentagon.png'></img>,32,850,test,purple_pentagon,go1,32,15,1,,,,,,,-1,-1,1400,0,ITI,poldrack-single-stim,253,370680,0.0-6.1-48.1,go_nogo_deval,440,,<div></div>,32,1400,test,,,,,,,,,,,,-1,-1,500,0,fixation,poldrack-single-stim,254,371182,0.0-6.1-49.1,go_nogo_deval,440,,<div class = centerbox><div class = fixation>+</div></div>,none,500,test,,,,,,,,,,,,412,32,850,0,stim,poldrack-single-stim,255,372033,0.0-6.1-50.1,go_nogo_deval,440,,<img class = center src='/static/experiments/go_nogo_deval/images/blue_circle.png'></img>,32,850,test,blue_circle,go2,32,16,1,,,,,,,-1,-1,1400,0,ITI,poldrack-single-stim,256,373435,0.0-6.1-51.1,go_nogo_deval,440,,<div></div>,32,1400,test,,,,,,,,,,,,-1,-1,500,0,fixation,poldrack-single-stim,257,373936,0.0-6.1-52.1,go_nogo_deval,440,,<div class = centerbox><div class = fixation>+</div></div>,none,500,test,,,,,,,,,,,,-1,-1,850,0,stim,poldrack-single-stim,258,374788,0.0-6.1-53.1,go_nogo_deval,440,,<img class = center src='/static/experiments/go_nogo_deval/images/green_triangle.png'></img>,32,850,test,green_triangle,nogo1,-1,17,1,,,,,,,-1,-1,1400,0,ITI,poldrack-single-stim,259,376190,0.0-6.1-54.1,go_nogo_deval,440,,<div></div>,32,1400,test,,,,,,,,,,,,-1,-1,500,0,fixation,poldrack-single-stim,260,376692,0.0-6.1-55.1,go_nogo_deval,440,,<div class = centerbox><div class = fixation>+</div></div>,none,500,test,,,,,,,,,,,,-1,-1,850,0,stim,poldrack-single-stim,261,377543,0.0-6.1-56.1,go_nogo_deval,440,,<img class = center src='/static/experiments/go_nogo_deval/images/green_triangle.png'></img>,32,850,test,green_triangle,nogo1,-1,18,1,,,,,,,-1,-1,1400,0,ITI,poldrack-single-stim,262,378944,0.0-6.1-57.1,go_nogo_deval,440,,<div></div>,32,1400,test,,,,,,,,,,,,-1,-1,500,0,fixation,poldrack-single-stim,263,379446,0.0-6.1-58.1,go_nogo_deval,440,,<div class = centerbox><div class = fixation>+</div></div>,none,500,test,,,,,,,,,,,,-1,-1,850,0,stim,poldrack-single-stim,264,380298,0.0-6.1-59.1,go_nogo_deval,440,,<img class = center src='/static/experiments/go_nogo_deval/images/green_triangle.png'></img>,32,850,test,green_triangle,nogo1,-1,19,1,,,,,,,-1,-1,1400,0,ITI,poldrack-single-stim,265,381700,0.0-6.1-60.1,go_nogo_deval,440,,<div></div>,32,1400,test,,,,,,,,,,,,-1,-1,500,0,fixation,poldrack-single-stim,266,382201,0.0-6.1-61.1,go_nogo_deval,440,,<div class = centerbox><div class = fixation>+</div></div>,none,500,test,,,,,,,,,,,,464,32,850,0,stim,poldrack-single-stim,267,383053,0.0-6.1-62.1,go_nogo_deval,440,,<img class = center src='/static/experiments/go_nogo_deval/images/purple_pentagon.png'></img>,32,850,test,purple_pentagon,go1,32,20,1,,,,,,,-1,-1,1400,0,ITI,poldrack-single-stim,268,384455,0.0-6.1-63.1,go_nogo_deval,440,,<div></div>,32,1400,test,,,,,,,,,,,,-1,-1,500,0,fixation,poldrack-single-stim,269,384956,0.0-6.1-64.1,go_nogo_deval,440,,<div class = centerbox><div class = fixation>+</div></div>,none,500,test,,,,,,,,,,,,374,32,850,0,stim,poldrack-single-stim,270,385808,0.0-6.1-65.1,go_nogo_deval,440,,<img class = center src='/static/experiments/go_nogo_deval/images/blue_circle.png'></img>,32,850,test,blue_circle,go2,32,21,1,,,,,,,-1,-1,1400,0,ITI,poldrack-single-stim,271,387210,0.0-6.1-66.1,go_nogo_deval,440,,<div></div>,32,1400,test,,,,,,,,,,,,-1,-1,500,0,fixation,poldrack-single-stim,272,387712,0.0-6.1-67.1,go_nogo_deval,440,,<div class = centerbox><div class = fixation>+</div></div>,none,500,test,,,,,,,,,,,,420,32,850,0,stim,poldrack-single-stim,273,388563,0.0-6.1-68.1,go_nogo_deval,440,,<img class = center src='/static/experiments/go_nogo_deval/images/blue_circle.png'></img>,32,850,test,blue_circle,go2,32,22,1,,,,,,,-1,-1,1400,0,ITI,poldrack-single-stim,274,389964,0.0-6.1-69.1,go_nogo_deval,440,,<div></div>,32,1400,test,,,,,,,,,,,,-1,-1,500,0,fixation,poldrack-single-stim,275,390465,0.0-6.1-70.1,go_nogo_deval,440,,<div class = centerbox><div class = fixation>+</div></div>,none,500,test,,,,,,,,,,,,423,32,850,0,stim,poldrack-single-stim,276,391318,0.0-6.1-71.1,go_nogo_deval,440,,<img class = center src='/static/experiments/go_nogo_deval/images/blue_circle.png'></img>,32,850,test,blue_circle,go2,32,23,1,,,,,,,-1,-1,1400,0,ITI,poldrack-single-stim,277,392719,0.0-6.1-72.1,go_nogo_deval,440,,<div></div>,32,1400,test,,,,,,,,,,,,-1,-1,500,0,fixation,poldrack-single-stim,278,393221,0.0-6.1-73.1,go_nogo_deval,440,,<div class = centerbox><div class = fixation>+</div></div>,none,500,test,,,,,,,,,,,,-1,-1,850,0,stim,poldrack-single-stim,279,394072,0.0-6.1-74.1,go_nogo_deval,440,,<img class = center src='/static/experiments/go_nogo_deval/images/green_triangle.png'></img>,32,850,test,green_triangle,nogo1,-1,24,1,,,,,,,-1,-1,1400,0,ITI,poldrack-single-stim,280,395473,0.0-6.1-75.1,go_nogo_deval,440,,<div></div>,32,1400,test,,,,,,,,,,,,-1,-1,500,0,fixation,poldrack-single-stim,281,395975,0.0-6.1-76.1,go_nogo_deval,440,,<div class = centerbox><div class = fixation>+</div></div>,none,500,test,,,,,,,,,,,,460,32,850,0,stim,poldrack-single-stim,282,396827,0.0-6.1-77.1,go_nogo_deval,440,,<img class = center src='/static/experiments/go_nogo_deval/images/blue_circle.png'></img>,32,850,test,blue_circle,go2,32,25,1,,,,,,,-1,-1,1400,0,ITI,poldrack-single-stim,283,398229,0.0-6.1-78.1,go_nogo_deval,440,,<div></div>,32,1400,test,,,,,,,,,,,,-1,-1,500,0,fixation,poldrack-single-stim,284,398731,0.0-6.1-79.1,go_nogo_deval,440,,<div class = centerbox><div class = fixation>+</div></div>,none,500,test,,,,,,,,,,,,404,32,850,0,stim,poldrack-single-stim,285,399583,0.0-6.1-80.1,go_nogo_deval,440,,<img class = center src='/static/experiments/go_nogo_deval/images/purple_pentagon.png'></img>,32,850,test,purple_pentagon,go1,32,26,1,,,,,,,-1,-1,1400,0,ITI,poldrack-single-stim,286,400985,0.0-6.1-81.1,go_nogo_deval,440,,<div></div>,32,1400,test,,,,,,,,,,,,-1,-1,500,0,fixation,poldrack-single-stim,287,401486,0.0-6.1-82.1,go_nogo_deval,440,,<div class = centerbox><div class = fixation>+</div></div>,none,500,test,,,,,,,,,,,,449,32,850,0,stim,poldrack-single-stim,288,402337,0.0-6.1-83.1,go_nogo_deval,440,,<img class = center src='/static/experiments/go_nogo_deval/images/blue_circle.png'></img>,32,850,test,blue_circle,go2,32,27,1,,,,,,,-1,-1,1400,0,ITI,poldrack-single-stim,289,403738,0.0-6.1-84.1,go_nogo_deval,440,,<div></div>,32,1400,test,,,,,,,,,,,,-1,-1,500,0,fixation,poldrack-single-stim,290,404239,0.0-6.1-85.1,go_nogo_deval,440,,<div class = centerbox><div class = fixation>+</div></div>,none,500,test,,,,,,,,,,,,498,32,850,0,stim,poldrack-single-stim,291,405091,0.0-6.1-86.1,go_nogo_deval,440,,<img class = center src='/static/experiments/go_nogo_deval/images/blue_circle.png'></img>,32,850,test,blue_circle,go2,32,28,1,,,,,,,-1,-1,1400,0,ITI,poldrack-single-stim,292,406493,0.0-6.1-87.1,go_nogo_deval,440,,<div></div>,32,1400,test,,,,,,,,,,,,-1,-1,500,0,fixation,poldrack-single-stim,293,406994,0.0-6.1-88.1,go_nogo_deval,440,,<div class = centerbox><div class = fixation>+</div></div>,none,500,test,,,,,,,,,,,,-1,-1,850,0,stim,poldrack-single-stim,294,407846,0.0-6.1-89.1,go_nogo_deval,440,,<img class = center src='/static/experiments/go_nogo_deval/images/red_rhombus.png'></img>,32,850,test,red_rhombus,nogo2,-1,29,1,,,,,,,-1,-1,1400,0,ITI,poldrack-single-stim,295,409248,0.0-6.1-90.1,go_nogo_deval,440,,<div></div>,32,1400,test,,,,,,,,,,,,-1,-1,500,0,fixation,poldrack-single-stim,296,409750,0.0-6.1-91.1,go_nogo_deval,440,,<div class = centerbox><div class = fixation>+</div></div>,none,500,test,,,,,,,,,,,,-1,-1,850,0,stim,poldrack-single-stim,297,410602,0.0-6.1-92.1,go_nogo_deval,440,,<img class = center src='/static/experiments/go_nogo_deval/images/green_triangle.png'></img>,32,850,test,green_triangle,nogo1,-1,30,1,,,,,,,-1,-1,1400,0,ITI,poldrack-single-stim,298,412002,0.0-6.1-93.1,go_nogo_deval,440,,<div></div>,32,1400,test,,,,,,,,,,,,-1,-1,500,0,fixation,poldrack-single-stim,299,412504,0.0-6.1-94.1,go_nogo_deval,440,,<div class = centerbox><div class = fixation>+</div></div>,none,500,test,,,,,,,,,,,,479,32,850,0,stim,poldrack-single-stim,300,413356,0.0-6.1-95.1,go_nogo_deval,440,,<img class = center src='/static/experiments/go_nogo_deval/images/red_rhombus.png'></img>,32,850,test,red_rhombus,nogo2,-1,31,1,,,,,,,-1,-1,1400,0,ITI,poldrack-single-stim,301,414757,0.0-6.1-96.1,go_nogo_deval,440,,<div></div>,32,1400,test,,,,,,,,,,,,-1,-1,500,0,fixation,poldrack-single-stim,302,415259,0.0-6.1-97.1,go_nogo_deval,440,,<div class = centerbox><div class = fixation>+</div></div>,none,500,test,,,,,,,,,,,,560,32,850,0,stim,poldrack-single-stim,303,416111,0.0-6.1-98.1,go_nogo_deval,440,,<img class = center src='/static/experiments/go_nogo_deval/images/blue_circle.png'></img>,32,850,test,blue_circle,go2,32,32,1,,,,,,,-1,-1,1400,0,ITI,poldrack-single-stim,304,417512,0.0-6.1-99.1,go_nogo_deval,440,,<div></div>,32,1400,test,,,,,,,,,,,,-1,-1,500,0,fixation,poldrack-single-stim,305,418014,0.0-6.1-100.1,go_nogo_deval,440,,<div class = centerbox><div class = fixation>+</div></div>,none,500,test,,,,,,,,,,,,471,32,850,0,stim,poldrack-single-stim,306,418866,0.0-6.1-101.1,go_nogo_deval,440,,<img class = center src='/static/experiments/go_nogo_deval/images/purple_pentagon.png'></img>,32,850,test,purple_pentagon,go1,32,33,1,,,,,,,-1,-1,1400,0,ITI,poldrack-single-stim,307,420268,0.0-6.1-102.1,go_nogo_deval,440,,<div></div>,32,1400,test,,,,,,,,,,,,-1,-1,500,0,fixation,poldrack-single-stim,308,420770,0.0-6.1-103.1,go_nogo_deval,440,,<div class = centerbox><div class = fixation>+</div></div>,none,500,test,,,,,,,,,,,,-1,-1,850,0,stim,poldrack-single-stim,309,421621,0.0-6.1-104.1,go_nogo_deval,440,,<img class = center src='/static/experiments/go_nogo_deval/images/red_rhombus.png'></img>,32,850,test,red_rhombus,nogo2,-1,34,1,,,,,,,-1,-1,1400,0,ITI,poldrack-single-stim,310,423022,0.0-6.1-105.1,go_nogo_deval,440,,<div></div>,32,1400,test,,,,,,,,,,,,-1,-1,500,0,fixation,poldrack-single-stim,311,423523,0.0-6.1-106.1,go_nogo_deval,440,,<div class = centerbox><div class = fixation>+</div></div>,none,500,test,,,,,,,,,,,,395,32,850,0,stim,poldrack-single-stim,312,424375,0.0-6.1-107.1,go_nogo_deval,440,,<img class = center src='/static/experiments/go_nogo_deval/images/blue_circle.png'></img>,32,850,test,blue_circle,go2,32,35,1,,,,,,,-1,-1,1400,0,ITI,poldrack-single-stim,313,425777,0.0-6.1-108.1,go_nogo_deval,440,,<div></div>,32,1400,test,,,,,,,,,,,,-1,-1,500,0,fixation,poldrack-single-stim,314,426279,0.0-6.1-109.1,go_nogo_deval,440,,<div class = centerbox><div class = fixation>+</div></div>,none,500,test,,,,,,,,,,,,-1,-1,850,0,stim,poldrack-single-stim,315,427131,0.0-6.1-110.1,go_nogo_deval,440,,<img class = center src='/static/experiments/go_nogo_deval/images/red_rhombus.png'></img>,32,850,test,red_rhombus,nogo2,-1,36,1,,,,,,,-1,-1,1400,0,ITI,poldrack-single-stim,316,428532,0.0-6.1-111.1,go_nogo_deval,440,,<div></div>,32,1400,test,,,,,,,,,,,,-1,-1,500,0,fixation,poldrack-single-stim,317,429033,0.0-6.1-112.1,go_nogo_deval,440,,<div class = centerbox><div class = fixation>+</div></div>,none,500,test,,,,,,,,,,,,-1,-1,850,0,stim,poldrack-single-stim,318,429885,0.0-6.1-113.1,go_nogo_deval,440,,<img class = center src='/static/experiments/go_nogo_deval/images/red_rhombus.png'></img>,32,850,test,red_rhombus,nogo2,-1,37,1,,,,,,,-1,-1,1400,0,ITI,poldrack-single-stim,319,431287,0.0-6.1-114.1,go_nogo_deval,440,,<div></div>,32,1400,test,,,,,,,,,,,,-1,-1,500,0,fixation,poldrack-single-stim,320,431788,0.0-6.1-115.1,go_nogo_deval,440,,<div class = centerbox><div class = fixation>+</div></div>,none,500,test,,,,,,,,,,,,523,32,850,0,stim,poldrack-single-stim,321,432639,0.0-6.1-116.1,go_nogo_deval,440,,<img class = center src='/static/experiments/go_nogo_deval/images/blue_circle.png'></img>,32,850,test,blue_circle,go2,32,38,1,,,,,,,-1,-1,1400,0,ITI,poldrack-single-stim,322,434041,0.0-6.1-117.1,go_nogo_deval,440,,<div></div>,32,1400,test,,,,,,,,,,,,-1,-1,500,0,fixation,poldrack-single-stim,323,434542,0.0-6.1-118.1,go_nogo_deval,440,,<div class = centerbox><div class = fixation>+</div></div>,none,500,test,,,,,,,,,,,,391,32,850,0,stim,poldrack-single-stim,324,435394,0.0-6.1-119.1,go_nogo_deval,440,,<img class = center src='/static/experiments/go_nogo_deval/images/blue_circle.png'></img>,32,850,test,blue_circle,go2,32,39,1,,,,,,,-1,-1,1400,0,ITI,poldrack-single-stim,325,436796,0.0-6.1-120.1,go_nogo_deval,440,,<div></div>,32,1400,test,,,,,,,,,,,,-1,-1,500,0,fixation,poldrack-single-stim,326,437297,0.0-6.1-121.1,go_nogo_deval,440,,<div class = centerbox><div class = fixation>+</div></div>,none,500,test,,,,,,,,,,,,526,32,850,0,stim,poldrack-single-stim,327,438149,0.0-6.1-122.1,go_nogo_deval,440,,<img class = center src='/static/experiments/go_nogo_deval/images/purple_pentagon.png'></img>,32,850,test,purple_pentagon,go1,32,40,1,,,,,,,-1,-1,1400,0,ITI,poldrack-single-stim,328,439551,0.0-6.1-123.1,go_nogo_deval,440,,<div></div>,32,1400,test,,,,,,,,,,,,-1,-1,500,0,fixation,poldrack-single-stim,329,440053,0.0-6.1-124.1,go_nogo_deval,440,,<div class = centerbox><div class = fixation>+</div></div>,none,500,test,,,,,,,,,,,,527,32,850,0,stim,poldrack-single-stim,330,440904,0.0-6.1-125.1,go_nogo_deval,440,,<img class = center src='/static/experiments/go_nogo_deval/images/purple_pentagon.png'></img>,32,850,test,purple_pentagon,go1,32,41,1,,,,,,,-1,-1,1400,0,ITI,poldrack-single-stim,331,442306,0.0-6.1-126.1,go_nogo_deval,440,,<div></div>,32,1400,test,,,,,,,,,,,,-1,-1,500,0,fixation,poldrack-single-stim,332,442808,0.0-6.1-127.1,go_nogo_deval,440,,<div class = centerbox><div class = fixation>+</div></div>,none,500,test,,,,,,,,,,,,517,32,850,0,stim,poldrack-single-stim,333,443660,0.0-6.1-128.1,go_nogo_deval,440,,<img class = center src='/static/experiments/go_nogo_deval/images/blue_circle.png'></img>,32,850,test,blue_circle,go2,32,42,1,,,,,,,-1,-1,1400,0,ITI,poldrack-single-stim,334,445062,0.0-6.1-129.1,go_nogo_deval,440,,<div></div>,32,1400,test,,,,,,,,,,,,-1,-1,500,0,fixation,poldrack-single-stim,335,445564,0.0-6.1-130.1,go_nogo_deval,440,,<div class = centerbox><div class = fixation>+</div></div>,none,500,test,,,,,,,,,,,,450,32,850,0,stim,poldrack-single-stim,336,446416,0.0-6.1-131.1,go_nogo_deval,440,,<img class = center src='/static/experiments/go_nogo_deval/images/purple_pentagon.png'></img>,32,850,test,purple_pentagon,go1,32,43,1,,,,,,,-1,-1,1400,0,ITI,poldrack-single-stim,337,447817,0.0-6.1-132.1,go_nogo_deval,440,,<div></div>,32,1400,test,,,,,,,,,,,,-1,-1,500,0,fixation,poldrack-single-stim,338,448318,0.0-6.1-133.1,go_nogo_deval,440,,<div class = centerbox><div class = fixation>+</div></div>,none,500,test,,,,,,,,,,,,339,32,850,0,stim,poldrack-single-stim,339,449170,0.0-6.1-134.1,go_nogo_deval,440,,<img class = center src='/static/experiments/go_nogo_deval/images/purple_pentagon.png'></img>,32,850,test,purple_pentagon,go1,32,44,1,,,,,,,-1,-1,1400,0,ITI,poldrack-single-stim,340,450572,0.0-6.1-135.1,go_nogo_deval,440,,<div></div>,32,1400,test,,,,,,,,,,,,-1,-1,500,0,fixation,poldrack-single-stim,341,451074,0.0-6.1-136.1,go_nogo_deval,440,,<div class = centerbox><div class = fixation>+</div></div>,none,500,test,,,,,,,,,,,,407,32,850,0,stim,poldrack-single-stim,342,451925,0.0-6.1-137.1,go_nogo_deval,440,,<img class = center src='/static/experiments/go_nogo_deval/images/purple_pentagon.png'></img>,32,850,test,purple_pentagon,go1,32,45,1,,,,,,,-1,-1,1400,0,ITI,poldrack-single-stim,343,453326,0.0-6.1-138.1,go_nogo_deval,440,,<div></div>,32,1400,test,,,,,,,,,,,,-1,-1,500,0,fixation,poldrack-single-stim,344,453828,0.0-6.1-139.1,go_nogo_deval,440,,<div class = centerbox><div class = fixation>+</div></div>,none,500,test,,,,,,,,,,,,376,32,850,0,stim,poldrack-single-stim,345,454679,0.0-6.1-140.1,go_nogo_deval,440,,<img class = center src='/static/experiments/go_nogo_deval/images/purple_pentagon.png'></img>,32,850,test,purple_pentagon,go1,32,46,1,,,,,,,-1,-1,1400,0,ITI,poldrack-single-stim,346,456081,0.0-6.1-141.1,go_nogo_deval,440,,<div></div>,32,1400,test,,,,,,,,,,,,-1,-1,500,0,fixation,poldrack-single-stim,347,456582,0.0-6.1-142.1,go_nogo_deval,440,,<div class = centerbox><div class = fixation>+</div></div>,none,500,test,,,,,,,,,,,,-1,-1,850,0,stim,poldrack-single-stim,348,457434,0.0-6.1-143.1,go_nogo_deval,440,,<img class = center src='/static/experiments/go_nogo_deval/images/red_rhombus.png'></img>,32,850,test,red_rhombus,nogo2,-1,47,1,,,,,,,-1,-1,1400,0,ITI,poldrack-single-stim,349,458835,0.0-6.1-144.1,go_nogo_deval,440,,<div></div>,32,1400,test,,,,,,,,,,,,14255,13,14255,0,practice-no-stop-feedback,poldrack-single-stim,350,473093,0.0-6.2-0.2,go_nogo_deval,440,,"<div class = centerbox><p class = block-text><br>Please take this time to read your feedback and to take a short break! Press enter to continue</p><p class = block-text><strong>Average reaction time:  437 ms. Accuracy: 96%</strong></p><p class = block-text>We have detected a number of trials that <strong>required no response</strong>, where a response was made.  Please <strong>ensure that you do not respond </strong>to shapes that require no response</p></div>",13,14255,,,,,,,,,,,,,-1,-1,500,0,fixation,poldrack-single-stim,351,473595,0.0-6.2-1.2,go_nogo_deval,440,,<div class = centerbox><div class = fixation>+</div></div>,none,500,test,,,,,,,,,,,,610,32,850,0,stim,poldrack-single-stim,352,474447,0.0-6.2-2.2,go_nogo_deval,440,,<img class = center src='/static/experiments/go_nogo_deval/images/purple_pentagon.png'></img>,32,850,test,purple_pentagon,go1,32,0,2,,,,,,,-1,-1,1400,0,ITI,poldrack-single-stim,353,475849,0.0-6.2-3.2,go_nogo_deval,440,,<div></div>,32,1400,test,,,,,,,,,,,,-1,-1,500,0,fixation,poldrack-single-stim,354,476351,0.0-6.2-4.2,go_nogo_deval,440,,<div class = centerbox><div class = fixation>+</div></div>,none,500,test,,,,,,,,,,,,398,32,850,0,stim,poldrack-single-stim,355,477201,0.0-6.2-5.2,go_nogo_deval,440,,<img class = center src='/static/experiments/go_nogo_deval/images/purple_pentagon.png'></img>,32,850,test,purple_pentagon,go1,32,1,2,,,,,,,-1,-1,1400,0,ITI,poldrack-single-stim,356,478602,0.0-6.2-6.2,go_nogo_deval,440,,<div></div>,32,1400,test,,,,,,,,,,,,-1,-1,500,0,fixation,poldrack-single-stim,357,479104,0.0-6.2-7.2,go_nogo_deval,440,,<div class = centerbox><div class = fixation>+</div></div>,none,500,test,,,,,,,,,,,,-1,-1,850,0,stim,poldrack-single-stim,358,479956,0.0-6.2-8.2,go_nogo_deval,440,,<img class = center src='/static/experiments/go_nogo_deval/images/red_rhombus.png'></img>,32,850,test,red_rhombus,nogo2,-1,2,2,,,,,,,-1,-1,1400,0,ITI,poldrack-single-stim,359,481357,0.0-6.2-9.2,go_nogo_deval,440,,<div></div>,32,1400,test,,,,,,,,,,,,-1,-1,500,0,fixation,poldrack-single-stim,360,481859,0.0-6.2-10.2,go_nogo_deval,440,,<div class = centerbox><div class = fixation>+</div></div>,none,500,test,,,,,,,,,,,,414,32,850,0,stim,poldrack-single-stim,361,482711,0.0-6.2-11.2,go_nogo_deval,440,,<img class = center src='/static/experiments/go_nogo_deval/images/purple_pentagon.png'></img>,32,850,test,purple_pentagon,go1,32,3,2,,,,,,,-1,-1,1400,0,ITI,poldrack-single-stim,362,484113,0.0-6.2-12.2,go_nogo_deval,440,,<div></div>,32,1400,test,,,,,,,,,,,,-1,-1,500,0,fixation,poldrack-single-stim,363,484614,0.0-6.2-13.2,go_nogo_deval,440,,<div class = centerbox><div class = fixation>+</div></div>,none,500,test,,,,,,,,,,,,427,32,850,0,stim,poldrack-single-stim,364,485466,0.0-6.2-14.2,go_nogo_deval,440,,<img class = center src='/static/experiments/go_nogo_deval/images/purple_pentagon.png'></img>,32,850,test,purple_pentagon,go1,32,4,2,,,,,,,-1,-1,1400,0,ITI,poldrack-single-stim,365,486867,0.0-6.2-15.2,go_nogo_deval,440,,<div></div>,32,1400,test,,,,,,,,,,,,-1,-1,500,0,fixation,poldrack-single-stim,366,487369,0.0-6.2-16.2,go_nogo_deval,440,,<div class = centerbox><div class = fixation>+</div></div>,none,500,test,,,,,,,,,,,,507,32,850,0,stim,poldrack-single-stim,367,488221,0.0-6.2-17.2,go_nogo_deval,440,,<img class = center src='/static/experiments/go_nogo_deval/images/blue_circle.png'></img>,32,850,test,blue_circle,go2,32,5,2,,,,,,,-1,-1,1400,0,ITI,poldrack-single-stim,368,489622,0.0-6.2-18.2,go_nogo_deval,440,,<div></div>,32,1400,test,,,,,,,,,,,,-1,-1,500,0,fixation,poldrack-single-stim,369,490124,0.0-6.2-19.2,go_nogo_deval,440,,<div class = centerbox><div class = fixation>+</div></div>,none,500,test,,,,,,,,,,,,304,32,850,0,stim,poldrack-single-stim,370,490976,0.0-6.2-20.2,go_nogo_deval,440,,<img class = center src='/static/experiments/go_nogo_deval/images/blue_circle.png'></img>,32,850,test,blue_circle,go2,32,6,2,,,,,,,-1,-1,1400,0,ITI,poldrack-single-stim,371,492377,0.0-6.2-21.2,go_nogo_deval,440,,<div></div>,32,1400,test,,,,,,,,,,,,-1,-1,500,0,fixation,poldrack-single-stim,372,492879,0.0-6.2-22.2,go_nogo_deval,440,,<div class = centerbox><div class = fixation>+</div></div>,none,500,test,,,,,,,,,,,,-1,-1,850,0,stim,poldrack-single-stim,373,493731,0.0-6.2-23.2,go_nogo_deval,440,,<img class = center src='/static/experiments/go_nogo_deval/images/red_rhombus.png'></img>,32,850,test,red_rhombus,nogo2,-1,7,2,,,,,,,-1,-1,1400,0,ITI,poldrack-single-stim,374,495132,0.0-6.2-24.2,go_nogo_deval,440,,<div></div>,32,1400,test,,,,,,,,,,,,-1,-1,500,0,fixation,poldrack-single-stim,375,495634,0.0-6.2-25.2,go_nogo_deval,440,,<div class = centerbox><div class = fixation>+</div></div>,none,500,test,,,,,,,,,,,,-1,-1,850,0,stim,poldrack-single-stim,376,496485,0.0-6.2-26.2,go_nogo_deval,440,,<img class = center src='/static/experiments/go_nogo_deval/images/green_triangle.png'></img>,32,850,test,green_triangle,nogo1,-1,8,2,,,,,,,-1,-1,1400,0,ITI,poldrack-single-stim,377,497886,0.0-6.2-27.2,go_nogo_deval,440,,<div></div>,32,1400,test,,,,,,,,,,,,-1,-1,500,0,fixation,poldrack-single-stim,378,498388,0.0-6.2-28.2,go_nogo_deval,440,,<div class = centerbox><div class = fixation>+</div></div>,none,500,test,,,,,,,,,,,,399,32,850,0,stim,poldrack-single-stim,379,499240,0.0-6.2-29.2,go_nogo_deval,440,,<img class = center src='/static/experiments/go_nogo_deval/images/blue_circle.png'></img>,32,850,test,blue_circle,go2,32,9,2,,,,,,,-1,-1,1400,0,ITI,poldrack-single-stim,380,500642,0.0-6.2-30.2,go_nogo_deval,440,,<div></div>,32,1400,test,,,,,,,,,,,,-1,-1,500,0,fixation,poldrack-single-stim,381,501144,0.0-6.2-31.2,go_nogo_deval,440,,<div class = centerbox><div class = fixation>+</div></div>,none,500,test,,,,,,,,,,,,-1,-1,850,0,stim,poldrack-single-stim,382,501995,0.0-6.2-32.2,go_nogo_deval,440,,<img class = center src='/static/experiments/go_nogo_deval/images/red_rhombus.png'></img>,32,850,test,red_rhombus,nogo2,-1,10,2,,,,,,,-1,-1,1400,0,ITI,poldrack-single-stim,383,503397,0.0-6.2-33.2,go_nogo_deval,440,,<div></div>,32,1400,test,,,,,,,,,,,,-1,-1,500,0,fixation,poldrack-single-stim,384,503898,0.0-6.2-34.2,go_nogo_deval,440,,<div class = centerbox><div class = fixation>+</div></div>,none,500,test,,,,,,,,,,,,-1,-1,850,0,stim,poldrack-single-stim,385,504750,0.0-6.2-35.2,go_nogo_deval,440,,<img class = center src='/static/experiments/go_nogo_deval/images/red_rhombus.png'></img>,32,850,test,red_rhombus,nogo2,-1,11,2,,,,,,,-1,-1,1400,0,ITI,poldrack-single-stim,386,506152,0.0-6.2-36.2,go_nogo_deval,440,,<div></div>,32,1400,test,,,,,,,,,,,,-1,-1,500,0,fixation,poldrack-single-stim,387,506653,0.0-6.2-37.2,go_nogo_deval,440,,<div class = centerbox><div class = fixation>+</div></div>,none,500,test,,,,,,,,,,,,-1,-1,850,0,stim,poldrack-single-stim,388,507504,0.0-6.2-38.2,go_nogo_deval,440,,<img class = center src='/static/experiments/go_nogo_deval/images/green_triangle.png'></img>,32,850,test,green_triangle,nogo1,-1,12,2,,,,,,,-1,-1,1400,0,ITI,poldrack-single-stim,389,508906,0.0-6.2-39.2,go_nogo_deval,440,,<div></div>,32,1400,test,,,,,,,,,,,,-1,-1,500,0,fixation,poldrack-single-stim,390,509408,0.0-6.2-40.2,go_nogo_deval,440,,<div class = centerbox><div class = fixation>+</div></div>,none,500,test,,,,,,,,,,,,-1,-1,850,0,stim,poldrack-single-stim,391,510259,0.0-6.2-41.2,go_nogo_deval,440,,<img class = center src='/static/experiments/go_nogo_deval/images/green_triangle.png'></img>,32,850,test,green_triangle,nogo1,-1,13,2,,,,,,,-1,-1,1400,0,ITI,poldrack-single-stim,392,511661,0.0-6.2-42.2,go_nogo_deval,440,,<div></div>,32,1400,test,,,,,,,,,,,,-1,-1,500,0,fixation,poldrack-single-stim,393,512163,0.0-6.2-43.2,go_nogo_deval,440,,<div class = centerbox><div class = fixation>+</div></div>,none,500,test,,,,,,,,,,,,440,32,850,0,stim,poldrack-single-stim,394,513015,0.0-6.2-44.2,go_nogo_deval,440,,<img class = center src='/static/experiments/go_nogo_deval/images/purple_pentagon.png'></img>,32,850,test,purple_pentagon,go1,32,14,2,,,,,,,-1,-1,1400,0,ITI,poldrack-single-stim,395,514417,0.0-6.2-45.2,go_nogo_deval,440,,<div></div>,32,1400,test,,,,,,,,,,,,-1,-1,500,0,fixation,poldrack-single-stim,396,514919,0.0-6.2-46.2,go_nogo_deval,440,,<div class = centerbox><div class = fixation>+</div></div>,none,500,test,,,,,,,,,,,,383,32,850,0,stim,poldrack-single-stim,397,515771,0.0-6.2-47.2,go_nogo_deval,440,,<img class = center src='/static/experiments/go_nogo_deval/images/blue_circle.png'></img>,32,850,test,blue_circle,go2,32,15,2,,,,,,,-1,-1,1400,0,ITI,poldrack-single-stim,398,517172,0.0-6.2-48.2,go_nogo_deval,440,,<div></div>,32,1400,test,,,,,,,,,,,,-1,-1,500,0,fixation,poldrack-single-stim,399,517674,0.0-6.2-49.2,go_nogo_deval,440,,<div class = centerbox><div class = fixation>+</div></div>,none,500,test,,,,,,,,,,,,475,32,850,0,stim,poldrack-single-stim,400,518525,0.0-6.2-50.2,go_nogo_deval,440,,<img class = center src='/static/experiments/go_nogo_deval/images/purple_pentagon.png'></img>,32,850,test,purple_pentagon,go1,32,16,2,,,,,,,-1,-1,1400,0,ITI,poldrack-single-stim,401,519926,0.0-6.2-51.2,go_nogo_deval,440,,<div></div>,32,1400,test,,,,,,,,,,,,-1,-1,500,0,fixation,poldrack-single-stim,402,520428,0.0-6.2-52.2,go_nogo_deval,440,,<div class = centerbox><div class = fixation>+</div></div>,none,500,test,,,,,,,,,,,,398,32,850,0,stim,poldrack-single-stim,403,521280,0.0-6.2-53.2,go_nogo_deval,440,,<img class = center src='/static/experiments/go_nogo_deval/images/blue_circle.png'></img>,32,850,test,blue_circle,go2,32,17,2,,,,,,,-1,-1,1400,0,ITI,poldrack-single-stim,404,522681,0.0-6.2-54.2,go_nogo_deval,440,,<div></div>,32,1400,test,,,,,,,,,,,,-1,-1,500,0,fixation,poldrack-single-stim,405,523183,0.0-6.2-55.2,go_nogo_deval,440,,<div class = centerbox><div class = fixation>+</div></div>,none,500,test,,,,,,,,,,,,401,32,850,0,stim,poldrack-single-stim,406,524034,0.0-6.2-56.2,go_nogo_deval,440,,<img class = center src='/static/experiments/go_nogo_deval/images/purple_pentagon.png'></img>,32,850,test,purple_pentagon,go1,32,18,2,,,,,,,-1,-1,1400,0,ITI,poldrack-single-stim,407,525434,0.0-6.2-57.2,go_nogo_deval,440,,<div></div>,32,1400,test,,,,,,,,,,,,-1,-1,500,0,fixation,poldrack-single-stim,408,525936,0.0-6.2-58.2,go_nogo_deval,440,,<div class = centerbox><div class = fixation>+</div></div>,none,500,test,,,,,,,,,,,,380,32,850,0,stim,poldrack-single-stim,409,526788,0.0-6.2-59.2,go_nogo_deval,440,,<img class = center src='/static/experiments/go_nogo_deval/images/purple_pentagon.png'></img>,32,850,test,purple_pentagon,go1,32,19,2,,,,,,,-1,-1,1400,0,ITI,poldrack-single-stim,410,528190,0.0-6.2-60.2,go_nogo_deval,440,,<div></div>,32,1400,test,,,,,,,,,,,,-1,-1,500,0,fixation,poldrack-single-stim,411,528691,0.0-6.2-61.2,go_nogo_deval,440,,<div class = centerbox><div class = fixation>+</div></div>,none,500,test,,,,,,,,,,,,336,32,850,0,stim,poldrack-single-stim,412,529542,0.0-6.2-62.2,go_nogo_deval,440,,<img class = center src='/static/experiments/go_nogo_deval/images/blue_circle.png'></img>,32,850,test,blue_circle,go2,32,20,2,,,,,,,-1,-1,1400,0,ITI,poldrack-single-stim,413,530944,0.0-6.2-63.2,go_nogo_deval,440,,<div></div>,32,1400,test,,,,,,,,,,,,-1,-1,500,0,fixation,poldrack-single-stim,414,531446,0.0-6.2-64.2,go_nogo_deval,440,,<div class = centerbox><div class = fixation>+</div></div>,none,500,test,,,,,,,,,,,,361,32,850,0,stim,poldrack-single-stim,415,532298,0.0-6.2-65.2,go_nogo_deval,440,,<img class = center src='/static/experiments/go_nogo_deval/images/blue_circle.png'></img>,32,850,test,blue_circle,go2,32,21,2,,,,,,,-1,-1,1400,0,ITI,poldrack-single-stim,416,533699,0.0-6.2-66.2,go_nogo_deval,440,,<div></div>,32,1400,test,,,,,,,,,,,,-1,-1,500,0,fixation,poldrack-single-stim,417,534201,0.0-6.2-67.2,go_nogo_deval,440,,<div class = centerbox><div class = fixation>+</div></div>,none,500,test,,,,,,,,,,,,-1,-1,850,0,stim,poldrack-single-stim,418,535052,0.0-6.2-68.2,go_nogo_deval,440,,<img class = center src='/static/experiments/go_nogo_deval/images/red_rhombus.png'></img>,32,850,test,red_rhombus,nogo2,-1,22,2,,,,,,,-1,-1,1400,0,ITI,poldrack-single-stim,419,536454,0.0-6.2-69.2,go_nogo_deval,440,,<div></div>,32,1400,test,,,,,,,,,,,,-1,-1,500,0,fixation,poldrack-single-stim,420,536955,0.0-6.2-70.2,go_nogo_deval,440,,<div class = centerbox><div class = fixation>+</div></div>,none,500,test,,,,,,,,,,,,444,32,850,0,stim,poldrack-single-stim,421,537807,0.0-6.2-71.2,go_nogo_deval,440,,<img class = center src='/static/experiments/go_nogo_deval/images/purple_pentagon.png'></img>,32,850,test,purple_pentagon,go1,32,23,2,,,,,,,-1,-1,1400,0,ITI,poldrack-single-stim,422,539209,0.0-6.2-72.2,go_nogo_deval,440,,<div></div>,32,1400,test,,,,,,,,,,,,-1,-1,500,0,fixation,poldrack-single-stim,423,539710,0.0-6.2-73.2,go_nogo_deval,440,,<div class = centerbox><div class = fixation>+</div></div>,none,500,test,,,,,,,,,,,,376,32,850,0,stim,poldrack-single-stim,424,540562,0.0-6.2-74.2,go_nogo_deval,440,,<img class = center src='/static/experiments/go_nogo_deval/images/blue_circle.png'></img>,32,850,test,blue_circle,go2,32,24,2,,,,,,,-1,-1,1400,0,ITI,poldrack-single-stim,425,541964,0.0-6.2-75.2,go_nogo_deval,440,,<div></div>,32,1400,test,,,,,,,,,,,,-1,-1,500,0,fixation,poldrack-single-stim,426,542466,0.0-6.2-76.2,go_nogo_deval,440,,<div class = centerbox><div class = fixation>+</div></div>,none,500,test,,,,,,,,,,,,490,32,850,0,stim,poldrack-single-stim,427,543317,0.0-6.2-77.2,go_nogo_deval,440,,<img class = center src='/static/experiments/go_nogo_deval/images/purple_pentagon.png'></img>,32,850,test,purple_pentagon,go1,32,25,2,,,,,,,-1,-1,1400,0,ITI,poldrack-single-stim,428,544719,0.0-6.2-78.2,go_nogo_deval,440,,<div></div>,32,1400,test,,,,,,,,,,,,-1,-1,500,0,fixation,poldrack-single-stim,429,545221,0.0-6.2-79.2,go_nogo_deval,440,,<div class = centerbox><div class = fixation>+</div></div>,none,500,test,,,,,,,,,,,,-1,-1,850,0,stim,poldrack-single-stim,430,546072,0.0-6.2-80.2,go_nogo_deval,440,,<img class = center src='/static/experiments/go_nogo_deval/images/green_triangle.png'></img>,32,850,test,green_triangle,nogo1,-1,26,2,,,,,,,-1,-1,1400,0,ITI,poldrack-single-stim,431,547474,0.0-6.2-81.2,go_nogo_deval,440,,<div></div>,32,1400,test,,,,,,,,,,,,-1,-1,500,0,fixation,poldrack-single-stim,432,547976,0.0-6.2-82.2,go_nogo_deval,440,,<div class = centerbox><div class = fixation>+</div></div>,none,500,test,,,,,,,,,,,,414,32,850,0,stim,poldrack-single-stim,433,548828,0.0-6.2-83.2,go_nogo_deval,440,,<img class = center src='/static/experiments/go_nogo_deval/images/blue_circle.png'></img>,32,850,test,blue_circle,go2,32,27,2,,,,,,,-1,-1,1400,0,ITI,poldrack-single-stim,434,550229,0.0-6.2-84.2,go_nogo_deval,440,,<div></div>,32,1400,test,,,,,,,,,,,,-1,-1,500,0,fixation,poldrack-single-stim,435,550731,0.0-6.2-85.2,go_nogo_deval,440,,<div class = centerbox><div class = fixation>+</div></div>,none,500,test,,,,,,,,,,,,-1,-1,850,0,stim,poldrack-single-stim,436,551583,0.0-6.2-86.2,go_nogo_deval,440,,<img class = center src='/static/experiments/go_nogo_deval/images/green_triangle.png'></img>,32,850,test,green_triangle,nogo1,-1,28,2,,,,,,,-1,-1,1400,0,ITI,poldrack-single-stim,437,552984,0.0-6.2-87.2,go_nogo_deval,440,,<div></div>,32,1400,test,,,,,,,,,,,,-1,-1,500,0,fixation,poldrack-single-stim,438,553485,0.0-6.2-88.2,go_nogo_deval,440,,<div class = centerbox><div class = fixation>+</div></div>,none,500,test,,,,,,,,,,,,485,32,850,0,stim,poldrack-single-stim,439,554336,0.0-6.2-89.2,go_nogo_deval,440,,<img class = center src='/static/experiments/go_nogo_deval/images/purple_pentagon.png'></img>,32,850,test,purple_pentagon,go1,32,29,2,,,,,,,-1,-1,1400,0,ITI,poldrack-single-stim,440,555738,0.0-6.2-90.2,go_nogo_deval,440,,<div></div>,32,1400,test,,,,,,,,,,,,-1,-1,500,0,fixation,poldrack-single-stim,441,556240,0.0-6.2-91.2,go_nogo_deval,440,,<div class = centerbox><div class = fixation>+</div></div>,none,500,test,,,,,,,,,,,,-1,-1,850,0,stim,poldrack-single-stim,442,557091,0.0-6.2-92.2,go_nogo_deval,440,,<img class = center src='/static/experiments/go_nogo_deval/images/red_rhombus.png'></img>,32,850,test,red_rhombus,nogo2,-1,30,2,,,,,,,-1,-1,1400,0,ITI,poldrack-single-stim,443,558493,0.0-6.2-93.2,go_nogo_deval,440,,<div></div>,32,1400,test,,,,,,,,,,,,-1,-1,500,0,fixation,poldrack-single-stim,444,558995,0.0-6.2-94.2,go_nogo_deval,440,,<div class = centerbox><div class = fixation>+</div></div>,none,500,test,,,,,,,,,,,,-1,-1,850,0,stim,poldrack-single-stim,445,559846,0.0-6.2-95.2,go_nogo_deval,440,,<img class = center src='/static/experiments/go_nogo_deval/images/red_rhombus.png'></img>,32,850,test,red_rhombus,nogo2,-1,31,2,,,,,,,-1,-1,1400,0,ITI,poldrack-single-stim,446,561248,0.0-6.2-96.2,go_nogo_deval,440,,<div></div>,32,1400,test,,,,,,,,,,,,-1,-1,500,0,fixation,poldrack-single-stim,447,561749,0.0-6.2-97.2,go_nogo_deval,440,,<div class = centerbox><div class = fixation>+</div></div>,none,500,test,,,,,,,,,,,,534,32,850,0,stim,poldrack-single-stim,448,562600,0.0-6.2-98.2,go_nogo_deval,440,,<img class = center src='/static/experiments/go_nogo_deval/images/purple_pentagon.png'></img>,32,850,test,purple_pentagon,go1,32,32,2,,,,,,,-1,-1,1400,0,ITI,poldrack-single-stim,449,564002,0.0-6.2-99.2,go_nogo_deval,440,,<div></div>,32,1400,test,,,,,,,,,,,,-1,-1,500,0,fixation,poldrack-single-stim,450,564504,0.0-6.2-100.2,go_nogo_deval,440,,<div class = centerbox><div class = fixation>+</div></div>,none,500,test,,,,,,,,,,,,491,32,850,0,stim,poldrack-single-stim,451,565356,0.0-6.2-101.2,go_nogo_deval,440,,<img class = center src='/static/experiments/go_nogo_deval/images/purple_pentagon.png'></img>,32,850,test,purple_pentagon,go1,32,33,2,,,,,,,-1,-1,1400,0,ITI,poldrack-single-stim,452,566757,0.0-6.2-102.2,go_nogo_deval,440,,<div></div>,32,1400,test,,,,,,,,,,,,-1,-1,500,0,fixation,poldrack-single-stim,453,567258,0.0-6.2-103.2,go_nogo_deval,440,,<div class = centerbox><div class = fixation>+</div></div>,none,500,test,,,,,,,,,,,,-1,-1,850,0,stim,poldrack-single-stim,454,568110,0.0-6.2-104.2,go_nogo_deval,440,,<img class = center src='/static/experiments/go_nogo_deval/images/green_triangle.png'></img>,32,850,test,green_triangle,nogo1,-1,34,2,,,,,,,-1,-1,1400,0,ITI,poldrack-single-stim,455,569512,0.0-6.2-105.2,go_nogo_deval,440,,<div></div>,32,1400,test,,,,,,,,,,,,-1,-1,500,0,fixation,poldrack-single-stim,456,570013,0.0-6.2-106.2,go_nogo_deval,440,,<div class = centerbox><div class = fixation>+</div></div>,none,500,test,,,,,,,,,,,,505,32,850,0,stim,poldrack-single-stim,457,570865,0.0-6.2-107.2,go_nogo_deval,440,,<img class = center src='/static/experiments/go_nogo_deval/images/purple_pentagon.png'></img>,32,850,test,purple_pentagon,go1,32,35,2,,,,,,,-1,-1,1400,0,ITI,poldrack-single-stim,458,572265,0.0-6.2-108.2,go_nogo_deval,440,,<div></div>,32,1400,test,,,,,,,,,,,,-1,-1,500,0,fixation,poldrack-single-stim,459,572767,0.0-6.2-109.2,go_nogo_deval,440,,<div class = centerbox><div class = fixation>+</div></div>,none,500,test,,,,,,,,,,,,407,32,850,0,stim,poldrack-single-stim,460,573619,0.0-6.2-110.2,go_nogo_deval,440,,<img class = center src='/static/experiments/go_nogo_deval/images/blue_circle.png'></img>,32,850,test,blue_circle,go2,32,36,2,,,,,,,-1,-1,1400,0,ITI,poldrack-single-stim,461,575021,0.0-6.2-111.2,go_nogo_deval,440,,<div></div>,32,1400,test,,,,,,,,,,,,-1,-1,500,0,fixation,poldrack-single-stim,462,575522,0.0-6.2-112.2,go_nogo_deval,440,,<div class = centerbox><div class = fixation>+</div></div>,none,500,test,,,,,,,,,,,,408,32,850,0,stim,poldrack-single-stim,463,576373,0.0-6.2-113.2,go_nogo_deval,440,,<img class = center src='/static/experiments/go_nogo_deval/images/blue_circle.png'></img>,32,850,test,blue_circle,go2,32,37,2,,,,,,,-1,-1,1400,0,ITI,poldrack-single-stim,464,577775,0.0-6.2-114.2,go_nogo_deval,440,,<div></div>,32,1400,test,,,,,,,,,,,,-1,-1,500,0,fixation,poldrack-single-stim,465,578277,0.0-6.2-115.2,go_nogo_deval,440,,<div class = centerbox><div class = fixation>+</div></div>,none,500,test,,,,,,,,,,,,375,32,850,0,stim,poldrack-single-stim,466,579128,0.0-6.2-116.2,go_nogo_deval,440,,<img class = center src='/static/experiments/go_nogo_deval/images/blue_circle.png'></img>,32,850,test,blue_circle,go2,32,38,2,,,,,,,-1,-1,1400,0,ITI,poldrack-single-stim,467,580530,0.0-6.2-117.2,go_nogo_deval,440,,<div></div>,32,1400,test,,,,,,,,,,,,-1,-1,500,0,fixation,poldrack-single-stim,468,581033,0.0-6.2-118.2,go_nogo_deval,440,,<div class = centerbox><div class = fixation>+</div></div>,none,500,test,,,,,,,,,,,,454,32,850,0,stim,poldrack-single-stim,469,581885,0.0-6.2-119.2,go_nogo_deval,440,,<img class = center src='/static/experiments/go_nogo_deval/images/purple_pentagon.png'></img>,32,850,test,purple_pentagon,go1,32,39,2,,,,,,,-1,-1,1400,0,ITI,poldrack-single-stim,470,583287,0.0-6.2-120.2,go_nogo_deval,440,,<div></div>,32,1400,test,,,,,,,,,,,,-1,-1,500,0,fixation,poldrack-single-stim,471,583788,0.0-6.2-121.2,go_nogo_deval,440,,<div class = centerbox><div class = fixation>+</div></div>,none,500,test,,,,,,,,,,,,355,32,850,0,stim,poldrack-single-stim,472,584639,0.0-6.2-122.2,go_nogo_deval,440,,<img class = center src='/static/experiments/go_nogo_deval/images/blue_circle.png'></img>,32,850,test,blue_circle,go2,32,40,2,,,,,,,-1,-1,1400,0,ITI,poldrack-single-stim,473,586040,0.0-6.2-123.2,go_nogo_deval,440,,<div></div>,32,1400,test,,,,,,,,,,,,-1,-1,500,0,fixation,poldrack-single-stim,474,586542,0.0-6.2-124.2,go_nogo_deval,440,,<div class = centerbox><div class = fixation>+</div></div>,none,500,test,,,,,,,,,,,,368,32,850,0,stim,poldrack-single-stim,475,587392,0.0-6.2-125.2,go_nogo_deval,440,,<img class = center src='/static/experiments/go_nogo_deval/images/purple_pentagon.png'></img>,32,850,test,purple_pentagon,go1,32,41,2,,,,,,,-1,-1,1400,0,ITI,poldrack-single-stim,476,588794,0.0-6.2-126.2,go_nogo_deval,440,,<div></div>,32,1400,test,,,,,,,,,,,,-1,-1,500,0,fixation,poldrack-single-stim,477,589296,0.0-6.2-127.2,go_nogo_deval,440,,<div class = centerbox><div class = fixation>+</div></div>,none,500,test,,,,,,,,,,,,382,32,850,0,stim,poldrack-single-stim,478,590148,0.0-6.2-128.2,go_nogo_deval,440,,<img class = center src='/static/experiments/go_nogo_deval/images/blue_circle.png'></img>,32,850,test,blue_circle,go2,32,42,2,,,,,,,-1,-1,1400,0,ITI,poldrack-single-stim,479,591548,0.0-6.2-129.2,go_nogo_deval,440,,<div></div>,32,1400,test,,,,,,,,,,,,-1,-1,500,0,fixation,poldrack-single-stim,480,592050,0.0-6.2-130.2,go_nogo_deval,440,,<div class = centerbox><div class = fixation>+</div></div>,none,500,test,,,,,,,,,,,,260,32,850,0,stim,poldrack-single-stim,481,592901,0.0-6.2-131.2,go_nogo_deval,440,,<img class = center src='/static/experiments/go_nogo_deval/images/blue_circle.png'></img>,32,850,test,blue_circle,go2,32,43,2,,,,,,,-1,-1,1400,0,ITI,poldrack-single-stim,482,594303,0.0-6.2-132.2,go_nogo_deval,440,,<div></div>,32,1400,test,,,,,,,,,,,,-1,-1,500,0,fixation,poldrack-single-stim,483,594805,0.0-6.2-133.2,go_nogo_deval,440,,<div class = centerbox><div class = fixation>+</div></div>,none,500,test,,,,,,,,,,,,363,32,850,0,stim,poldrack-single-stim,484,595657,0.0-6.2-134.2,go_nogo_deval,440,,<img class = center src='/static/experiments/go_nogo_deval/images/red_rhombus.png'></img>,32,850,test,red_rhombus,nogo2,-1,44,2,,,,,,,-1,-1,1400,0,ITI,poldrack-single-stim,485,597058,0.0-6.2-135.2,go_nogo_deval,440,,<div></div>,32,1400,test,,,,,,,,,,,,-1,-1,500,0,fixation,poldrack-single-stim,486,597560,0.0-6.2-136.2,go_nogo_deval,440,,<div class = centerbox><div class = fixation>+</div></div>,none,500,test,,,,,,,,,,,,465,32,850,0,stim,poldrack-single-stim,487,598412,0.0-6.2-137.2,go_nogo_deval,440,,<img class = center src='/static/experiments/go_nogo_deval/images/blue_circle.png'></img>,32,850,test,blue_circle,go2,32,45,2,,,,,,,-1,-1,1400,0,ITI,poldrack-single-stim,488,599814,0.0-6.2-138.2,go_nogo_deval,440,,<div></div>,32,1400,test,,,,,,,,,,,,-1,-1,500,0,fixation,poldrack-single-stim,489,600315,0.0-6.2-139.2,go_nogo_deval,440,,<div class = centerbox><div class = fixation>+</div></div>,none,500,test,,,,,,,,,,,,-1,-1,850,0,stim,poldrack-single-stim,490,601167,0.0-6.2-140.2,go_nogo_deval,440,,<img class = center src='/static/experiments/go_nogo_deval/images/green_triangle.png'></img>,32,850,test,green_triangle,nogo1,-1,46,2,,,,,,,-1,-1,1400,0,ITI,poldrack-single-stim,491,602569,0.0-6.2-141.2,go_nogo_deval,440,,<div></div>,32,1400,test,,,,,,,,,,,,-1,-1,500,0,fixation,poldrack-single-stim,492,603070,0.0-6.2-142.2,go_nogo_deval,440,,<div class = centerbox><div class = fixation>+</div></div>,none,500,test,,,,,,,,,,,,-1,-1,850,0,stim,poldrack-single-stim,493,603922,0.0-6.2-143.2,go_nogo_deval,440,,<img class = center src='/static/experiments/go_nogo_deval/images/green_triangle.png'></img>,32,850,test,green_triangle,nogo1,-1,47,2,,,,,,,256,32,1400,0,ITI,poldrack-single-stim,494,605323,0.0-6.2-144.2,go_nogo_deval,440,,<div></div>,32,1400,test,,,,,,,,,,,,9527,13,9527,0,practice-no-stop-feedback,poldrack-single-stim,495,614856,0.0-6.3-0.3,go_nogo_deval,440,,<div class = centerbox><p class = block-text><br>Please take this time to read your feedback and to take a short break! Press enter to continue</p><p class = block-text><strong>Average reaction time:  418 ms. Accuracy: 98%</strong></p></div>,13,9527,,,,,,,,,,,,,-1,-1,500,0,fixation,poldrack-single-stim,496,615357,0.0-6.3-1.3,go_nogo_deval,440,,<div class = centerbox><div class = fixation>+</div></div>,none,500,test,,,,,,,,,,,,397,32,850,0,stim,poldrack-single-stim,497,616209,0.0-6.3-2.3,go_nogo_deval,440,,<img class = center src='/static/experiments/go_nogo_deval/images/blue_circle.png'></img>,32,850,test,blue_circle,go2,32,0,3,,,,,,,-1,-1,1400,0,ITI,poldrack-single-stim,498,617611,0.0-6.3-3.3,go_nogo_deval,440,,<div></div>,32,1400,test,,,,,,,,,,,,-1,-1,500,0,fixation,poldrack-single-stim,499,618113,0.0-6.3-4.3,go_nogo_deval,440,,<div class = centerbox><div class = fixation>+</div></div>,none,500,test,,,,,,,,,,,,421,32,850,0,stim,poldrack-single-stim,500,618964,0.0-6.3-5.3,go_nogo_deval,440,,<img class = center src='/static/experiments/go_nogo_deval/images/purple_pentagon.png'></img>,32,850,test,purple_pentagon,go1,32,1,3,,,,,,,-1,-1,1400,0,ITI,poldrack-single-stim,501,620366,0.0-6.3-6.3,go_nogo_deval,440,,<div></div>,32,1400,test,,,,,,,,,,,,-1,-1,500,0,fixation,poldrack-single-stim,502,620868,0.0-6.3-7.3,go_nogo_deval,440,,<div class = centerbox><div class = fixation>+</div></div>,none,500,test,,,,,,,,,,,,-1,-1,850,0,stim,poldrack-single-stim,503,621719,0.0-6.3-8.3,go_nogo_deval,440,,<img class = center src='/static/experiments/go_nogo_deval/images/green_triangle.png'></img>,32,850,test,green_triangle,nogo1,-1,2,3,,,,,,,-1,-1,1400,0,ITI,poldrack-single-stim,504,623120,0.0-6.3-9.3,go_nogo_deval,440,,<div></div>,32,1400,test,,,,,,,,,,,,-1,-1,500,0,fixation,poldrack-single-stim,505,623622,0.0-6.3-10.3,go_nogo_deval,440,,<div class = centerbox><div class = fixation>+</div></div>,none,500,test,,,,,,,,,,,,-1,-1,850,0,stim,poldrack-single-stim,506,624473,0.0-6.3-11.3,go_nogo_deval,440,,<img class = center src='/static/experiments/go_nogo_deval/images/red_rhombus.png'></img>,32,850,test,red_rhombus,nogo2,-1,3,3,,,,,,,-1,-1,1400,0,ITI,poldrack-single-stim,507,625875,0.0-6.3-12.3,go_nogo_deval,440,,<div></div>,32,1400,test,,,,,,,,,,,,-1,-1,500,0,fixation,poldrack-single-stim,508,626377,0.0-6.3-13.3,go_nogo_deval,440,,<div class = centerbox><div class = fixation>+</div></div>,none,500,test,,,,,,,,,,,,-1,-1,850,0,stim,poldrack-single-stim,509,627228,0.0-6.3-14.3,go_nogo_deval,440,,<img class = center src='/static/experiments/go_nogo_deval/images/red_rhombus.png'></img>,32,850,test,red_rhombus,nogo2,-1,4,3,,,,,,,-1,-1,1400,0,ITI,poldrack-single-stim,510,628629,0.0-6.3-15.3,go_nogo_deval,440,,<div></div>,32,1400,test,,,,,,,,,,,,-1,-1,500,0,fixation,poldrack-single-stim,511,629130,0.0-6.3-16.3,go_nogo_deval,440,,<div class = centerbox><div class = fixation>+</div></div>,none,500,test,,,,,,,,,,,,407,32,850,0,stim,poldrack-single-stim,512,629981,0.0-6.3-17.3,go_nogo_deval,440,,<img class = center src='/static/experiments/go_nogo_deval/images/blue_circle.png'></img>,32,850,test,blue_circle,go2,32,5,3,,,,,,,-1,-1,1400,0,ITI,poldrack-single-stim,513,631383,0.0-6.3-18.3,go_nogo_deval,440,,<div></div>,32,1400,test,,,,,,,,,,,,-1,-1,500,0,fixation,poldrack-single-stim,514,631884,0.0-6.3-19.3,go_nogo_deval,440,,<div class = centerbox><div class = fixation>+</div></div>,none,500,test,,,,,,,,,,,,398,32,850,0,stim,poldrack-single-stim,515,632736,0.0-6.3-20.3,go_nogo_deval,440,,<img class = center src='/static/experiments/go_nogo_deval/images/purple_pentagon.png'></img>,32,850,test,purple_pentagon,go1,32,6,3,,,,,,,-1,-1,1400,0,ITI,poldrack-single-stim,516,634138,0.0-6.3-21.3,go_nogo_deval,440,,<div></div>,32,1400,test,,,,,,,,,,,,-1,-1,500,0,fixation,poldrack-single-stim,517,634640,0.0-6.3-22.3,go_nogo_deval,440,,<div class = centerbox><div class = fixation>+</div></div>,none,500,test,,,,,,,,,,,,443,32,850,0,stim,poldrack-single-stim,518,635490,0.0-6.3-23.3,go_nogo_deval,440,,<img class = center src='/static/experiments/go_nogo_deval/images/purple_pentagon.png'></img>,32,850,test,purple_pentagon,go1,32,7,3,,,,,,,-1,-1,1400,0,ITI,poldrack-single-stim,519,636892,0.0-6.3-24.3,go_nogo_deval,440,,<div></div>,32,1400,test,,,,,,,,,,,,-1,-1,500,0,fixation,poldrack-single-stim,520,637394,0.0-6.3-25.3,go_nogo_deval,440,,<div class = centerbox><div class = fixation>+</div></div>,none,500,test,,,,,,,,,,,,456,32,850,0,stim,poldrack-single-stim,521,638246,0.0-6.3-26.3,go_nogo_deval,440,,<img class = center src='/static/experiments/go_nogo_deval/images/purple_pentagon.png'></img>,32,850,test,purple_pentagon,go1,32,8,3,,,,,,,-1,-1,1400,0,ITI,poldrack-single-stim,522,639646,0.0-6.3-27.3,go_nogo_deval,440,,<div></div>,32,1400,test,,,,,,,,,,,,-1,-1,500,0,fixation,poldrack-single-stim,523,640148,0.0-6.3-28.3,go_nogo_deval,440,,<div class = centerbox><div class = fixation>+</div></div>,none,500,test,,,,,,,,,,,,-1,-1,850,0,stim,poldrack-single-stim,524,640999,0.0-6.3-29.3,go_nogo_deval,440,,<img class = center src='/static/experiments/go_nogo_deval/images/red_rhombus.png'></img>,32,850,test,red_rhombus,nogo2,-1,9,3,,,,,,,-1,-1,1400,0,ITI,poldrack-single-stim,525,642401,0.0-6.3-30.3,go_nogo_deval,440,,<div></div>,32,1400,test,,,,,,,,,,,,-1,-1,500,0,fixation,poldrack-single-stim,526,642903,0.0-6.3-31.3,go_nogo_deval,440,,<div class = centerbox><div class = fixation>+</div></div>,none,500,test,,,,,,,,,,,,-1,-1,850,0,stim,poldrack-single-stim,527,643754,0.0-6.3-32.3,go_nogo_deval,440,,<img class = center src='/static/experiments/go_nogo_deval/images/red_rhombus.png'></img>,32,850,test,red_rhombus,nogo2,-1,10,3,,,,,,,-1,-1,1400,0,ITI,poldrack-single-stim,528,645155,0.0-6.3-33.3,go_nogo_deval,440,,<div></div>,32,1400,test,,,,,,,,,,,,-1,-1,500,0,fixation,poldrack-single-stim,529,645656,0.0-6.3-34.3,go_nogo_deval,440,,<div class = centerbox><div class = fixation>+</div></div>,none,500,test,,,,,,,,,,,,531,32,850,0,stim,poldrack-single-stim,530,646508,0.0-6.3-35.3,go_nogo_deval,440,,<img class = center src='/static/experiments/go_nogo_deval/images/blue_circle.png'></img>,32,850,test,blue_circle,go2,32,11,3,,,,,,,-1,-1,1400,0,ITI,poldrack-single-stim,531,647909,0.0-6.3-36.3,go_nogo_deval,440,,<div></div>,32,1400,test,,,,,,,,,,,,-1,-1,500,0,fixation,poldrack-single-stim,532,648411,0.0-6.3-37.3,go_nogo_deval,440,,<div class = centerbox><div class = fixation>+</div></div>,none,500,test,,,,,,,,,,,,386,32,850,0,stim,poldrack-single-stim,533,649263,0.0-6.3-38.3,go_nogo_deval,440,,<img class = center src='/static/experiments/go_nogo_deval/images/blue_circle.png'></img>,32,850,test,blue_circle,go2,32,12,3,,,,,,,-1,-1,1400,0,ITI,poldrack-single-stim,534,650664,0.0-6.3-39.3,go_nogo_deval,440,,<div></div>,32,1400,test,,,,,,,,,,,,-1,-1,500,0,fixation,poldrack-single-stim,535,651165,0.0-6.3-40.3,go_nogo_deval,440,,<div class = centerbox><div class = fixation>+</div></div>,none,500,test,,,,,,,,,,,,-1,-1,850,0,stim,poldrack-single-stim,536,652016,0.0-6.3-41.3,go_nogo_deval,440,,<img class = center src='/static/experiments/go_nogo_deval/images/green_triangle.png'></img>,32,850,test,green_triangle,nogo1,-1,13,3,,,,,,,-1,-1,1400,0,ITI,poldrack-single-stim,537,653418,0.0-6.3-42.3,go_nogo_deval,440,,<div></div>,32,1400,test,,,,,,,,,,,,-1,-1,500,0,fixation,poldrack-single-stim,538,653920,0.0-6.3-43.3,go_nogo_deval,440,,<div class = centerbox><div class = fixation>+</div></div>,none,500,test,,,,,,,,,,,,569,32,850,0,stim,poldrack-single-stim,539,654772,0.0-6.3-44.3,go_nogo_deval,440,,<img class = center src='/static/experiments/go_nogo_deval/images/blue_circle.png'></img>,32,850,test,blue_circle,go2,32,14,3,,,,,,,-1,-1,1400,0,ITI,poldrack-single-stim,540,656173,0.0-6.3-45.3,go_nogo_deval,440,,<div></div>,32,1400,test,,,,,,,,,,,,-1,-1,500,0,fixation,poldrack-single-stim,541,656674,0.0-6.3-46.3,go_nogo_deval,440,,<div class = centerbox><div class = fixation>+</div></div>,none,500,test,,,,,,,,,,,,413,32,850,0,stim,poldrack-single-stim,542,657526,0.0-6.3-47.3,go_nogo_deval,440,,<img class = center src='/static/experiments/go_nogo_deval/images/blue_circle.png'></img>,32,850,test,blue_circle,go2,32,15,3,,,,,,,-1,-1,1400,0,ITI,poldrack-single-stim,543,658928,0.0-6.3-48.3,go_nogo_deval,440,,<div></div>,32,1400,test,,,,,,,,,,,,-1,-1,500,0,fixation,poldrack-single-stim,544,659429,0.0-6.3-49.3,go_nogo_deval,440,,<div class = centerbox><div class = fixation>+</div></div>,none,500,test,,,,,,,,,,,,-1,-1,850,0,stim,poldrack-single-stim,545,660281,0.0-6.3-50.3,go_nogo_deval,440,,<img class = center src='/static/experiments/go_nogo_deval/images/green_triangle.png'></img>,32,850,test,green_triangle,nogo1,-1,16,3,,,,,,,-1,-1,1400,0,ITI,poldrack-single-stim,546,661683,0.0-6.3-51.3,go_nogo_deval,440,,<div></div>,32,1400,test,,,,,,,,,,,,-1,-1,500,0,fixation,poldrack-single-stim,547,662184,0.0-6.3-52.3,go_nogo_deval,440,,<div class = centerbox><div class = fixation>+</div></div>,none,500,test,,,,,,,,,,,,428,32,850,0,stim,poldrack-single-stim,548,663036,0.0-6.3-53.3,go_nogo_deval,440,,<img class = center src='/static/experiments/go_nogo_deval/images/purple_pentagon.png'></img>,32,850,test,purple_pentagon,go1,32,17,3,,,,,,,-1,-1,1400,0,ITI,poldrack-single-stim,549,664438,0.0-6.3-54.3,go_nogo_deval,440,,<div></div>,32,1400,test,,,,,,,,,,,,-1,-1,500,0,fixation,poldrack-single-stim,550,664939,0.0-6.3-55.3,go_nogo_deval,440,,<div class = centerbox><div class = fixation>+</div></div>,none,500,test,,,,,,,,,,,,328,32,850,0,stim,poldrack-single-stim,551,665791,0.0-6.3-56.3,go_nogo_deval,440,,<img class = center src='/static/experiments/go_nogo_deval/images/purple_pentagon.png'></img>,32,850,test,purple_pentagon,go1,32,18,3,,,,,,,-1,-1,1400,0,ITI,poldrack-single-stim,552,667192,0.0-6.3-57.3,go_nogo_deval,440,,<div></div>,32,1400,test,,,,,,,,,,,,-1,-1,500,0,fixation,poldrack-single-stim,553,667694,0.0-6.3-58.3,go_nogo_deval,440,,<div class = centerbox><div class = fixation>+</div></div>,none,500,test,,,,,,,,,,,,-1,-1,850,0,stim,poldrack-single-stim,554,668546,0.0-6.3-59.3,go_nogo_deval,440,,<img class = center src='/static/experiments/go_nogo_deval/images/green_triangle.png'></img>,32,850,test,green_triangle,nogo1,-1,19,3,,,,,,,-1,-1,1400,0,ITI,poldrack-single-stim,555,669947,0.0-6.3-60.3,go_nogo_deval,440,,<div></div>,32,1400,test,,,,,,,,,,,,-1,-1,500,0,fixation,poldrack-single-stim,556,670449,0.0-6.3-61.3,go_nogo_deval,440,,<div class = centerbox><div class = fixation>+</div></div>,none,500,test,,,,,,,,,,,,443,32,850,0,stim,poldrack-single-stim,557,671300,0.0-6.3-62.3,go_nogo_deval,440,,<img class = center src='/static/experiments/go_nogo_deval/images/purple_pentagon.png'></img>,32,850,test,purple_pentagon,go1,32,20,3,,,,,,,-1,-1,1400,0,ITI,poldrack-single-stim,558,672701,0.0-6.3-63.3,go_nogo_deval,440,,<div></div>,32,1400,test,,,,,,,,,,,,-1,-1,500,0,fixation,poldrack-single-stim,559,673203,0.0-6.3-64.3,go_nogo_deval,440,,<div class = centerbox><div class = fixation>+</div></div>,none,500,test,,,,,,,,,,,,433,32,850,0,stim,poldrack-single-stim,560,674055,0.0-6.3-65.3,go_nogo_deval,440,,<img class = center src='/static/experiments/go_nogo_deval/images/blue_circle.png'></img>,32,850,test,blue_circle,go2,32,21,3,,,,,,,-1,-1,1400,0,ITI,poldrack-single-stim,561,675456,0.0-6.3-66.3,go_nogo_deval,440,,<div></div>,32,1400,test,,,,,,,,,,,,-1,-1,500,0,fixation,poldrack-single-stim,562,675958,0.0-6.3-67.3,go_nogo_deval,440,,<div class = centerbox><div class = fixation>+</div></div>,none,500,test,,,,,,,,,,,,-1,-1,850,0,stim,poldrack-single-stim,563,676810,0.0-6.3-68.3,go_nogo_deval,440,,<img class = center src='/static/experiments/go_nogo_deval/images/green_triangle.png'></img>,32,850,test,green_triangle,nogo1,-1,22,3,,,,,,,-1,-1,1400,0,ITI,poldrack-single-stim,564,678211,0.0-6.3-69.3,go_nogo_deval,440,,<div></div>,32,1400,test,,,,,,,,,,,,-1,-1,500,0,fixation,poldrack-single-stim,565,678712,0.0-6.3-70.3,go_nogo_deval,440,,<div class = centerbox><div class = fixation>+</div></div>,none,500,test,,,,,,,,,,,,438,32,850,0,stim,poldrack-single-stim,566,679564,0.0-6.3-71.3,go_nogo_deval,440,,<img class = center src='/static/experiments/go_nogo_deval/images/purple_pentagon.png'></img>,32,850,test,purple_pentagon,go1,32,23,3,,,,,,,-1,-1,1400,0,ITI,poldrack-single-stim,567,680966,0.0-6.3-72.3,go_nogo_deval,440,,<div></div>,32,1400,test,,,,,,,,,,,,-1,-1,500,0,fixation,poldrack-single-stim,568,681468,0.0-6.3-73.3,go_nogo_deval,440,,<div class = centerbox><div class = fixation>+</div></div>,none,500,test,,,,,,,,,,,,-1,-1,850,0,stim,poldrack-single-stim,569,682319,0.0-6.3-74.3,go_nogo_deval,440,,<img class = center src='/static/experiments/go_nogo_deval/images/red_rhombus.png'></img>,32,850,test,red_rhombus,nogo2,-1,24,3,,,,,,,-1,-1,1400,0,ITI,poldrack-single-stim,570,683721,0.0-6.3-75.3,go_nogo_deval,440,,<div></div>,32,1400,test,,,,,,,,,,,,-1,-1,500,0,fixation,poldrack-single-stim,571,684223,0.0-6.3-76.3,go_nogo_deval,440,,<div class = centerbox><div class = fixation>+</div></div>,none,500,test,,,,,,,,,,,