text,rt,key_press,block_duration,timing_post_trial,trial_id,trial_type,trial_index,time_elapsed,internal_node_id,exp_id,subject_ID,view_history,stimulus,possible_responses,stim_duration,exp_stage,stim,go_nogo_type,correct_response,current_trial,current_block,chosenStim,chosenCond,stimLeft,cond_left,stimRight,cond_right<div class = centerbox><p class = center-block-text>Welcome to the task!</p><p class = center-block-text>Press<strong> enter</strong> to continue.</p></div>,2512,13,2512,0,welcome,poldrack-text,0,2514,0.0-0.0,go_nogo_deval,429,,,,,,,,,,,,,,,,,54587,,,,instruction,poldrack-instructions,1,57103,0.0-1.0,go_nogo_deval,429,"[{""page_index"":0,""viewing_time"":4029},{""page_index"":1,""viewing_time"":50558}]",,,,,,,,,,,,,,,,4798,13,4798,0,stop_intro_phase1,poldrack-single-stim,2,62904,0.0-2.0,go_nogo_deval,429,,"<div class = centerbox><p class = block-text>We will now start the practice for the experiment.<br><br>For these trials, you must press the <strong>spacebar </strong> or have <strong>no response</strong> depending on the shape of the stimulus.  Make sure to respond as quickly and accurately as possible to the shape. <br><br> The responses for each shape are as follows: <ul list-text><li>rhombus: spacebar</li><li>triangle: spacebar</li><li>pentagon: no response</li><li>circle: no response</li></ul></p><p class = block-text>Remember these rules before you proceed.</p><p class = block-text>Press <strong> enter</strong> to begin.</p></div>",13,4798,,,,,,,,,,,,,2586,13,2586,0,practice-no-stop-feedback,poldrack-single-stim,3,65492,0.0-3.0-0.0,go_nogo_deval,429,,<div class = centerbox><p class = block-text>We will now start with a practice session. In this practice concentrate on responding quickly and accurately to each stimuli unless it requires no response.</p><p class = block-text>Press enter to continue.</p></div>,13,2586,,,,,,,,,,,,,-1,-1,500,0,prompt_fixation,poldrack-single-stim,4,65995,0.0-3.0-1.0,go_nogo_deval,429,,<div class = centerbox><div class = fixation>+</div></div>,none,500,practice,,,,,,,,,,,,609,32,850,0,stim,poldrack-single-stim,5,66847,0.0-3.0-2.0,go_nogo_deval,429,,<img class = center src='/static/experiments/go_nogo_deval/images/red_pentagon.png'></img>,32,850,practice,red_pentagon,nogo1,-1,0,0,,,,,,,-1,-1,1400,0,ITI,poldrack-single-stim,6,68250,0.0-3.0-3.0,go_nogo_deval,429,,<div></div>,32,1400,practice,,,,,,,,,,,,-1,-1,500,0,prompt_fixation,poldrack-single-stim,7,68752,0.0-3.0-4.0,go_nogo_deval,429,,<div class = centerbox><div class = fixation>+</div></div>,none,500,practice,,,,,,,,,,,,699,32,850,0,stim,poldrack-single-stim,8,69604,0.0-3.0-5.0,go_nogo_deval,429,,<img class = center src='/static/experiments/go_nogo_deval/images/purple_rhombus.png'></img>,32,850,practice,purple_rhombus,go1,32,1,0,,,,,,,-1,-1,1400,0,ITI,poldrack-single-stim,9,71006,0.0-3.0-6.0,go_nogo_deval,429,,<div></div>,32,1400,practice,,,,,,,,,,,,-1,-1,500,0,prompt_fixation,poldrack-single-stim,10,71507,0.0-3.0-7.0,go_nogo_deval,429,,<div class = centerbox><div class = fixation>+</div></div>,none,500,practice,,,,,,,,,,,,756,32,850,0,stim,poldrack-single-stim,11,72358,0.0-3.0-8.0,go_nogo_deval,429,,<img class = center src='/static/experiments/go_nogo_deval/images/purple_rhombus.png'></img>,32,850,practice,purple_rhombus,go1,32,2,0,,,,,,,-1,-1,1400,0,ITI,poldrack-single-stim,12,73761,0.0-3.0-9.0,go_nogo_deval,429,,<div></div>,32,1400,practice,,,,,,,,,,,,-1,-1,500,0,prompt_fixation,poldrack-single-stim,13,74262,0.0-3.0-10.0,go_nogo_deval,429,,<div class = centerbox><div class = fixation>+</div></div>,none,500,practice,,,,,,,,,,,,-1,-1,850,0,stim,poldrack-single-stim,14,75115,0.0-3.0-11.0,go_nogo_deval,429,,<img class = center src='/static/experiments/go_nogo_deval/images/blue_circle.png'></img>,32,850,practice,blue_circle,nogo2,-1,3,0,,,,,,,-1,-1,1400,0,ITI,poldrack-single-stim,15,76516,0.0-3.0-12.0,go_nogo_deval,429,,<div></div>,32,1400,practice,,,,,,,,,,,,-1,-1,500,0,prompt_fixation,poldrack-single-stim,16,77018,0.0-3.0-13.0,go_nogo_deval,429,,<div class = centerbox><div class = fixation>+</div></div>,none,500,practice,,,,,,,,,,,,601,32,850,0,stim,poldrack-single-stim,17,77870,0.0-3.0-14.0,go_nogo_deval,429,,<img class = center src='/static/experiments/go_nogo_deval/images/purple_rhombus.png'></img>,32,850,practice,purple_rhombus,go1,32,4,0,,,,,,,-1,-1,1400,0,ITI,poldrack-single-stim,18,79272,0.0-3.0-15.0,go_nogo_deval,429,,<div></div>,32,1400,practice,,,,,,,,,,,,-1,-1,500,0,prompt_fixation,poldrack-single-stim,19,79774,0.0-3.0-16.0,go_nogo_deval,429,,<div class = centerbox><div class = fixation>+</div></div>,none,500,practice,,,,,,,,,,,,488,32,850,0,stim,poldrack-single-stim,20,80625,0.0-3.0-17.0,go_nogo_deval,429,,<img class = center src='/static/experiments/go_nogo_deval/images/green_triangle.png'></img>,32,850,practice,green_triangle,go2,32,5,0,,,,,,,-1,-1,1400,0,ITI,poldrack-single-stim,21,82026,0.0-3.0-18.0,go_nogo_deval,429,,<div></div>,32,1400,practice,,,,,,,,,,,,-1,-1,500,0,prompt_fixation,poldrack-single-stim,22,82529,0.0-3.0-19.0,go_nogo_deval,429,,<div class = centerbox><div class = fixation>+</div></div>,none,500,practice,,,,,,,,,,,,-1,-1,850,0,stim,poldrack-single-stim,23,83380,0.0-3.0-20.0,go_nogo_deval,429,,<img class = center src='/static/experiments/go_nogo_deval/images/red_pentagon.png'></img>,32,850,practice,red_pentagon,nogo1,-1,6,0,,,,,,,-1,-1,1400,0,ITI,poldrack-single-stim,24,84782,0.0-3.0-21.0,go_nogo_deval,429,,<div></div>,32,1400,practice,,,,,,,,,,,,-1,-1,500,0,prompt_fixation,poldrack-single-stim,25,85284,0.0-3.0-22.0,go_nogo_deval,429,,<div class = centerbox><div class = fixation>+</div></div>,none,500,practice,,,,,,,,,,,,434,32,850,0,stim,poldrack-single-stim,26,86136,0.0-3.0-23.0,go_nogo_deval,429,,<img class = center src='/static/experiments/go_nogo_deval/images/blue_circle.png'></img>,32,850,practice,blue_circle,nogo2,-1,7,0,,,,,,,-1,-1,1400,0,ITI,poldrack-single-stim,27,87538,0.0-3.0-24.0,go_nogo_deval,429,,<div></div>,32,1400,practice,,,,,,,,,,,,-1,-1,500,0,prompt_fixation,poldrack-single-stim,28,88038,0.0-3.0-25.0,go_nogo_deval,429,,<div class = centerbox><div class = fixation>+</div></div>,none,500,practice,,,,,,,,,,,,538,32,850,0,stim,poldrack-single-stim,29,88890,0.0-3.0-26.0,go_nogo_deval,429,,<img class = center src='/static/experiments/go_nogo_deval/images/green_triangle.png'></img>,32,850,practice,green_triangle,go2,32,8,0,,,,,,,-1,-1,1400,0,ITI,poldrack-single-stim,30,90292,0.0-3.0-27.0,go_nogo_deval,429,,<div></div>,32,1400,practice,,,,,,,,,,,,-1,-1,500,0,prompt_fixation,poldrack-single-stim,31,90794,0.0-3.0-28.0,go_nogo_deval,429,,<div class = centerbox><div class = fixation>+</div></div>,none,500,practice,,,,,,,,,,,,605,32,850,0,stim,poldrack-single-stim,32,91646,0.0-3.0-29.0,go_nogo_deval,429,,<img class = center src='/static/experiments/go_nogo_deval/images/green_triangle.png'></img>,32,850,practice,green_triangle,go2,32,9,0,,,,,,,-1,-1,1400,0,ITI,poldrack-single-stim,33,93048,0.0-3.0-30.0,go_nogo_deval,429,,<div></div>,32,1400,practice,,,,,,,,,,,,-1,-1,500,0,prompt_fixation,poldrack-single-stim,34,93550,0.0-3.0-31.0,go_nogo_deval,429,,<div class = centerbox><div class = fixation>+</div></div>,none,500,practice,,,,,,,,,,,,662,32,850,0,stim,poldrack-single-stim,35,94402,0.0-3.0-32.0,go_nogo_deval,429,,<img class = center src='/static/experiments/go_nogo_deval/images/purple_rhombus.png'></img>,32,850,practice,purple_rhombus,go1,32,10,0,,,,,,,-1,-1,1400,0,ITI,poldrack-single-stim,36,95804,0.0-3.0-33.0,go_nogo_deval,429,,<div></div>,32,1400,practice,,,,,,,,,,,,-1,-1,500,0,prompt_fixation,poldrack-single-stim,37,96305,0.0-3.0-34.0,go_nogo_deval,429,,<div class = centerbox><div class = fixation>+</div></div>,none,500,practice,,,,,,,,,,,,505,32,850,0,stim,poldrack-single-stim,38,97157,0.0-3.0-35.0,go_nogo_deval,429,,<img class = center src='/static/experiments/go_nogo_deval/images/green_triangle.png'></img>,32,850,practice,green_triangle,go2,32,11,0,,,,,,,-1,-1,1400,0,ITI,poldrack-single-stim,39,98559,0.0-3.0-36.0,go_nogo_deval,429,,<div></div>,32,1400,practice,,,,,,,,,,,,-1,-1,500,0,prompt_fixation,poldrack-single-stim,40,99061,0.0-3.0-37.0,go_nogo_deval,429,,<div class = centerbox><div class = fixation>+</div></div>,none,500,practice,,,,,,,,,,,,393,32,850,0,stim,poldrack-single-stim,41,99913,0.0-3.0-38.0,go_nogo_deval,429,,<img class = center src='/static/experiments/go_nogo_deval/images/green_triangle.png'></img>,32,850,practice,green_triangle,go2,32,12,0,,,,,,,-1,-1,1400,0,ITI,poldrack-single-stim,42,101315,0.0-3.0-39.0,go_nogo_deval,429,,<div></div>,32,1400,practice,,,,,,,,,,,,-1,-1,500,0,prompt_fixation,poldrack-single-stim,43,101817,0.0-3.0-40.0,go_nogo_deval,429,,<div class = centerbox><div class = fixation>+</div></div>,none,500,practice,,,,,,,,,,,,449,32,850,0,stim,poldrack-single-stim,44,102669,0.0-3.0-41.0,go_nogo_deval,429,,<img class = center src='/static/experiments/go_nogo_deval/images/purple_rhombus.png'></img>,32,850,practice,purple_rhombus,go1,32,13,0,,,,,,,-1,-1,1400,0,ITI,poldrack-single-stim,45,104071,0.0-3.0-42.0,go_nogo_deval,429,,<div></div>,32,1400,practice,,,,,,,,,,,,-1,-1,500,0,prompt_fixation,poldrack-single-stim,46,104572,0.0-3.0-43.0,go_nogo_deval,429,,<div class = centerbox><div class = fixation>+</div></div>,none,500,practice,,,,,,,,,,,,-1,-1,850,0,stim,poldrack-single-stim,47,105423,0.0-3.0-44.0,go_nogo_deval,429,,<img class = center src='/static/experiments/go_nogo_deval/images/blue_circle.png'></img>,32,850,practice,blue_circle,nogo2,-1,14,0,,,,,,,-1,-1,1400,0,ITI,poldrack-single-stim,48,106825,0.0-3.0-45.0,go_nogo_deval,429,,<div></div>,32,1400,practice,,,,,,,,,,,,-1,-1,500,0,prompt_fixation,poldrack-single-stim,49,107327,0.0-3.0-46.0,go_nogo_deval,429,,<div class = centerbox><div class = fixation>+</div></div>,none,500,practice,,,,,,,,,,,,-1,-1,850,0,stim,poldrack-single-stim,50,108180,0.0-3.0-47.0,go_nogo_deval,429,,<img class = center src='/static/experiments/go_nogo_deval/images/red_pentagon.png'></img>,32,850,practice,red_pentagon,nogo1,-1,15,0,,,,,,,-1,-1,1400,0,ITI,poldrack-single-stim,51,109582,0.0-3.0-48.0,go_nogo_deval,429,,<div></div>,32,1400,practice,,,,,,,,,,,,-1,-1,500,0,prompt_fixation,poldrack-single-stim,52,110083,0.0-3.0-49.0,go_nogo_deval,429,,<div class = centerbox><div class = fixation>+</div></div>,none,500,practice,,,,,,,,,,,,385,32,850,0,stim,poldrack-single-stim,53,110936,0.0-3.0-50.0,go_nogo_deval,429,,<img class = center src='/static/experiments/go_nogo_deval/images/green_triangle.png'></img>,32,850,practice,green_triangle,go2,32,16,0,,,,,,,-1,-1,1400,0,ITI,poldrack-single-stim,54,112336,0.0-3.0-51.0,go_nogo_deval,429,,<div></div>,32,1400,practice,,,,,,,,,,,,-1,-1,500,0,prompt_fixation,poldrack-single-stim,55,112838,0.0-3.0-52.0,go_nogo_deval,429,,<div class = centerbox><div class = fixation>+</div></div>,none,500,practice,,,,,,,,,,,,386,32,850,0,stim,poldrack-single-stim,56,113689,0.0-3.0-53.0,go_nogo_deval,429,,<img class = center src='/static/experiments/go_nogo_deval/images/purple_rhombus.png'></img>,32,850,practice,purple_rhombus,go1,32,17,0,,,,,,,-1,-1,1400,0,ITI,poldrack-single-stim,57,115091,0.0-3.0-54.0,go_nogo_deval,429,,<div></div>,32,1400,practice,,,,,,,,,,,,81259,13,81259,0,practice-no-stop-feedback,poldrack-single-stim,58,196353,0.0-4.0,go_nogo_deval,429,,<div class = centerbox><p class = block-text><br>Please take this time to read your feedback and to take a short break! Press enter to continue</p><p class = block-text><strong>Average reaction time:  536 ms. Accuracy: 89%</strong></p><p class = block-text>Done with this practice.</p></div>,13,81259,,,,,,,,,,,,,23073,13,23073,0,main_stop_intro_phase3,poldrack-single-stim,59,219427,0.0-5.0,go_nogo_deval,429,,"<div class = centerbox><p class = block-text>We will now start the main phase of the experiment.<br><br>These trials are the same as the trials that you have just completed. <br><br>The rules for each shape are as follows:  <br><ul list-text><li>rhombus: spacebar</li><li>triangle: spacebar</li><li>pentagon: no response</li><li>circle: no response</li></ul></p><p class = block-text>Remember these rules before you proceed, as they will no longer be presented during the trial.</p><p class = block-text>Press <strong> enter</strong> to begin.</p></div>",13,23073,,,,,,,,,,,,,3397,13,3397,0,practice-no-stop-feedback,poldrack-single-stim,60,222824,0.0-6.0-0.0,go_nogo_deval,429,,"<div class = centerbox><p class = block-text>We will now start with a test session. In this test, concentrate on responding quickly and accurately to each stimuli unless it requires no response.</p><p class = block-text>Press enter to continue.</p></div>",13,3397,,,,,,,,,,,,,-1,-1,500,0,fixation,poldrack-single-stim,61,223326,0.0-6.0-1.0,go_nogo_deval,429,,<div class = centerbox><div class = fixation>+</div></div>,none,500,test,,,,,,,,,,,,443,32,850,0,stim,poldrack-single-stim,62,224177,0.0-6.0-2.0,go_nogo_deval,429,,<img class = center src='/static/experiments/go_nogo_deval/images/red_pentagon.png'></img>,32,850,test,red_pentagon,nogo1,-1,0,0,,,,,,,-1,-1,1400,0,ITI,poldrack-single-stim,63,225577,0.0-6.0-3.0,go_nogo_deval,429,,<div></div>,32,1400,test,,,,,,,,,,,,-1,-1,500,0,fixation,poldrack-single-stim,64,226080,0.0-6.0-4.0,go_nogo_deval,429,,<div class = centerbox><div class = fixation>+</div></div>,none,500,test,,,,,,,,,,,,-1,-1,850,0,stim,poldrack-single-stim,65,226931,0.0-6.0-5.0,go_nogo_deval,429,,<img class = center src='/static/experiments/go_nogo_deval/images/blue_circle.png'></img>,32,850,test,blue_circle,nogo2,-1,1,0,,,,,,,-1,-1,1400,0,ITI,poldrack-single-stim,66,228332,0.0-6.0-6.0,go_nogo_deval,429,,<div></div>,32,1400,test,,,,,,,,,,,,-1,-1,500,0,fixation,poldrack-single-stim,67,228834,0.0-6.0-7.0,go_nogo_deval,429,,<div class = centerbox><div class = fixation>+</div></div>,none,500,test,,,,,,,,,,,,402,32,850,0,stim,poldrack-single-stim,68,229685,0.0-6.0-8.0,go_nogo_deval,429,,<img class = center src='/static/experiments/go_nogo_deval/images/purple_rhombus.png'></img>,32,850,test,purple_rhombus,go1,32,2,0,,,,,,,-1,-1,1400,0,ITI,poldrack-single-stim,69,231087,0.0-6.0-9.0,go_nogo_deval,429,,<div></div>,32,1400,test,,,,,,,,,,,,-1,-1,500,0,fixation,poldrack-single-stim,70,231589,0.0-6.0-10.0,go_nogo_deval,429,,<div class = centerbox><div class = fixation>+</div></div>,none,500,test,,,,,,,,,,,,-1,-1,850,0,stim,poldrack-single-stim,71,232441,0.0-6.0-11.0,go_nogo_deval,429,,<img class = center src='/static/experiments/go_nogo_deval/images/red_pentagon.png'></img>,32,850,test,red_pentagon,nogo1,-1,3,0,,,,,,,-1,-1,1400,0,ITI,poldrack-single-stim,72,233841,0.0-6.0-12.0,go_nogo_deval,429,,<div></div>,32,1400,test,,,,,,,,,,,,-1,-1,500,0,fixation,poldrack-single-stim,73,234343,0.0-6.0-13.0,go_nogo_deval,429,,<div class = centerbox><div class = fixation>+</div></div>,none,500,test,,,,,,,,,,,,518,32,850,0,stim,poldrack-single-stim,74,235195,0.0-6.0-14.0,go_nogo_deval,429,,<img class = center src='/static/experiments/go_nogo_deval/images/purple_rhombus.png'></img>,32,850,test,purple_rhombus,go1,32,4,0,,,,,,,-1,-1,1400,0,ITI,poldrack-single-stim,75,236597,0.0-6.0-15.0,go_nogo_deval,429,,<div></div>,32,1400,test,,,,,,,,,,,,-1,-1,500,0,fixation,poldrack-single-stim,76,237098,0.0-6.0-16.0,go_nogo_deval,429,,<div class = centerbox><div class = fixation>+</div></div>,none,500,test,,,,,,,,,,,,497,32,850,0,stim,poldrack-single-stim,77,237950,0.0-6.0-17.0,go_nogo_deval,429,,<img class = center src='/static/experiments/go_nogo_deval/images/purple_rhombus.png'></img>,32,850,test,purple_rhombus,go1,32,5,0,,,,,,,-1,-1,1400,0,ITI,poldrack-single-stim,78,239352,0.0-6.0-18.0,go_nogo_deval,429,,<div></div>,32,1400,test,,,,,,,,,,,,-1,-1,500,0,fixation,poldrack-single-stim,79,239853,0.0-6.0-19.0,go_nogo_deval,429,,<div class = centerbox><div class = fixation>+</div></div>,none,500,test,,,,,,,,,,,,373,32,850,0,stim,poldrack-single-stim,80,240705,0.0-6.0-20.0,go_nogo_deval,429,,<img class = center src='/static/experiments/go_nogo_deval/images/purple_rhombus.png'></img>,32,850,test,purple_rhombus,go1,32,6,0,,,,,,,-1,-1,1400,0,ITI,poldrack-single-stim,81,242107,0.0-6.0-21.0,go_nogo_deval,429,,<div></div>,32,1400,test,,,,,,,,,,,,-1,-1,500,0,fixation,poldrack-single-stim,82,242609,0.0-6.0-22.0,go_nogo_deval,429,,<div class = centerbox><div class = fixation>+</div></div>,none,500,test,,,,,,,,,,,,420,32,850,0,stim,poldrack-single-stim,83,243460,0.0-6.0-23.0,go_nogo_deval,429,,<img class = center src='/static/experiments/go_nogo_deval/images/green_triangle.png'></img>,32,850,test,green_triangle,go2,32,7,0,,,,,,,-1,-1,1400,0,ITI,poldrack-single-stim,84,244861,0.0-6.0-24.0,go_nogo_deval,429,,<div></div>,32,1400,test,,,,,,,,,,,,-1,-1,500,0,fixation,poldrack-single-stim,85,245363,0.0-6.0-25.0,go_nogo_deval,429,,<div class = centerbox><div class = fixation>+</div></div>,none,500,test,,,,,,,,,,,,556,32,850,0,stim,poldrack-single-stim,86,246215,0.0-6.0-26.0,go_nogo_deval,429,,<img class = center src='/static/experiments/go_nogo_deval/images/purple_rhombus.png'></img>,32,850,test,purple_rhombus,go1,32,8,0,,,,,,,-1,-1,1400,0,ITI,poldrack-single-stim,87,247616,0.0-6.0-27.0,go_nogo_deval,429,,<div></div>,32,1400,test,,,,,,,,,,,,-1,-1,500,0,fixation,poldrack-single-stim,88,248118,0.0-6.0-28.0,go_nogo_deval,429,,<div class = centerbox><div class = fixation>+</div></div>,none,500,test,,,,,,,,,,,,-1,-1,850,0,stim,poldrack-single-stim,89,248970,0.0-6.0-29.0,go_nogo_deval,429,,<img class = center src='/static/experiments/go_nogo_deval/images/red_pentagon.png'></img>,32,850,test,red_pentagon,nogo1,-1,9,0,,,,,,,-1,-1,1400,0,ITI,poldrack-single-stim,90,250372,0.0-6.0-30.0,go_nogo_deval,429,,<div></div>,32,1400,test,,,,,,,,,,,,-1,-1,500,0,fixation,poldrack-single-stim,91,250872,0.0-6.0-31.0,go_nogo_deval,429,,<div class = centerbox><div class = fixation>+</div></div>,none,500,test,,,,,,,,,,,,683,32,850,0,stim,poldrack-single-stim,92,251724,0.0-6.0-32.0,go_nogo_deval,429,,<img class = center src='/static/experiments/go_nogo_deval/images/purple_rhombus.png'></img>,32,850,test,purple_rhombus,go1,32,10,0,,,,,,,-1,-1,1400,0,ITI,poldrack-single-stim,93,253126,0.0-6.0-33.0,go_nogo_deval,429,,<div></div>,32,1400,test,,,,,,,,,,,,-1,-1,500,0,fixation,poldrack-single-stim,94,253628,0.0-6.0-34.0,go_nogo_deval,429,,<div class = centerbox><div class = fixation>+</div></div>,none,500,test,,,,,,,,,,,,358,32,850,0,stim,poldrack-single-stim,95,254480,0.0-6.0-35.0,go_nogo_deval,429,,<img class = center src='/static/experiments/go_nogo_deval/images/green_triangle.png'></img>,32,850,test,green_triangle,go2,32,11,0,,,,,,,-1,-1,1400,0,ITI,poldrack-single-stim,96,255881,0.0-6.0-36.0,go_nogo_deval,429,,<div></div>,32,1400,test,,,,,,,,,,,,-1,-1,500,0,fixation,poldrack-single-stim,97,256384,0.0-6.0-37.0,go_nogo_deval,429,,<div class = centerbox><div class = fixation>+</div></div>,none,500,test,,,,,,,,,,,,483,32,850,0,stim,poldrack-single-stim,98,257235,0.0-6.0-38.0,go_nogo_deval,429,,<img class = center src='/static/experiments/go_nogo_deval/images/purple_rhombus.png'></img>,32,850,test,purple_rhombus,go1,32,12,0,,,,,,,-1,-1,1400,0,ITI,poldrack-single-stim,99,258637,0.0-6.0-39.0,go_nogo_deval,429,,<div></div>,32,1400,test,,,,,,,,,,,,-1,-1,500,0,fixation,poldrack-single-stim,100,259138,0.0-6.0-40.0,go_nogo_deval,429,,<div class = centerbox><div class = fixation>+</div></div>,none,500,test,,,,,,,,,,,,394,32,850,0,stim,poldrack-single-stim,101,259990,0.0-6.0-41.0,go_nogo_deval,429,,<img class = center src='/static/experiments/go_nogo_deval/images/green_triangle.png'></img>,32,850,test,green_triangle,go2,32,13,0,,,,,,,-1,-1,1400,0,ITI,poldrack-single-stim,102,261392,0.0-6.0-42.0,go_nogo_deval,429,,<div></div>,32,1400,test,,,,,,,,,,,,-1,-1,500,0,fixation,poldrack-single-stim,103,261894,0.0-6.0-43.0,go_nogo_deval,429,,<div class = centerbox><div class = fixation>+</div></div>,none,500,test,,,,,,,,,,,,384,32,850,0,stim,poldrack-single-stim,104,262745,0.0-6.0-44.0,go_nogo_deval,429,,<img class = center src='/static/experiments/go_nogo_deval/images/purple_rhombus.png'></img>,32,850,test,purple_rhombus,go1,32,14,0,,,,,,,-1,-1,1400,0,ITI,poldrack-single-stim,105,264147,0.0-6.0-45.0,go_nogo_deval,429,,<div></div>,32,1400,test,,,,,,,,,,,,-1,-1,500,0,fixation,poldrack-single-stim,106,264650,0.0-6.0-46.0,go_nogo_deval,429,,<div class = centerbox><div class = fixation>+</div></div>,none,500,test,,,,,,,,,,,,-1,-1,850,0,stim,poldrack-single-stim,107,265502,0.0-6.0-47.0,go_nogo_deval,429,,<img class = center src='/static/experiments/go_nogo_deval/images/blue_circle.png'></img>,32,850,test,blue_circle,nogo2,-1,15,0,,,,,,,-1,-1,1400,0,ITI,poldrack-single-stim,108,266904,0.0-6.0-48.0,go_nogo_deval,429,,<div></div>,32,1400,test,,,,,,,,,,,,-1,-1,500,0,fixation,poldrack-single-stim,109,267406,0.0-6.0-49.0,go_nogo_deval,429,,<div class = centerbox><div class = fixation>+</div></div>,none,500,test,,,,,,,,,,,,385,32,850,0,stim,poldrack-single-stim,110,268257,0.0-6.0-50.0,go_nogo_deval,429,,<img class = center src='/static/experiments/go_nogo_deval/images/blue_circle.png'></img>,32,850,test,blue_circle,nogo2,-1,16,0,,,,,,,-1,-1,1400,0,ITI,poldrack-single-stim,111,269659,0.0-6.0-51.0,go_nogo_deval,429,,<div></div>,32,1400,test,,,,,,,,,,,,-1,-1,500,0,fixation,poldrack-single-stim,112,270160,0.0-6.0-52.0,go_nogo_deval,429,,<div class = centerbox><div class = fixation>+</div></div>,none,500,test,,,,,,,,,,,,533,32,850,0,stim,poldrack-single-stim,113,271012,0.0-6.0-53.0,go_nogo_deval,429,,<img class = center src='/static/experiments/go_nogo_deval/images/purple_rhombus.png'></img>,32,850,test,purple_rhombus,go1,32,17,0,,,,,,,-1,-1,1400,0,ITI,poldrack-single-stim,114,272414,0.0-6.0-54.0,go_nogo_deval,429,,<div></div>,32,1400,test,,,,,,,,,,,,-1,-1,500,0,fixation,poldrack-single-stim,115,272915,0.0-6.0-55.0,go_nogo_deval,429,,<div class = centerbox><div class = fixation>+</div></div>,none,500,test,,,,,,,,,,,,567,32,850,0,stim,poldrack-single-stim,116,273766,0.0-6.0-56.0,go_nogo_deval,429,,<img class = center src='/static/experiments/go_nogo_deval/images/green_triangle.png'></img>,32,850,test,green_triangle,go2,32,18,0,,,,,,,-1,-1,1400,0,ITI,poldrack-single-stim,117,275168,0.0-6.0-57.0,go_nogo_deval,429,,<div></div>,32,1400,test,,,,,,,,,,,,-1,-1,500,0,fixation,poldrack-single-stim,118,275670,0.0-6.0-58.0,go_nogo_deval,429,,<div class = centerbox><div class = fixation>+</div></div>,none,500,test,,,,,,,,,,,,-1,-1,850,0,stim,poldrack-single-stim,119,276522,0.0-6.0-59.0,go_nogo_deval,429,,<img class = center src='/static/experiments/go_nogo_deval/images/red_pentagon.png'></img>,32,850,test,red_pentagon,nogo1,-1,19,0,,,,,,,-1,-1,1400,0,ITI,poldrack-single-stim,120,277923,0.0-6.0-60.0,go_nogo_deval,429,,<div></div>,32,1400,test,,,,,,,,,,,,-1,-1,500,0,fixation,poldrack-single-stim,121,278424,0.0-6.0-61.0,go_nogo_deval,429,,<div class = centerbox><div class = fixation>+</div></div>,none,500,test,,,,,,,,,,,,-1,-1,850,0,stim,poldrack-single-stim,122,279276,0.0-6.0-62.0,go_nogo_deval,429,,<img class = center src='/static/experiments/go_nogo_deval/images/red_pentagon.png'></img>,32,850,test,red_pentagon,nogo1,-1,20,0,,,,,,,-1,-1,1400,0,ITI,poldrack-single-stim,123,280678,0.0-6.0-63.0,go_nogo_deval,429,,<div></div>,32,1400,test,,,,,,,,,,,,-1,-1,500,0,fixation,poldrack-single-stim,124,281179,0.0-6.0-64.0,go_nogo_deval,429,,<div class = centerbox><div class = fixation>+</div></div>,none,500,test,,,,,,,,,,,,584,32,850,0,stim,poldrack-single-stim,125,282031,0.0-6.0-65.0,go_nogo_deval,429,,<img class = center src='/static/experiments/go_nogo_deval/images/green_triangle.png'></img>,32,850,test,green_triangle,go2,32,21,0,,,,,,,-1,-1,1400,0,ITI,poldrack-single-stim,126,283433,0.0-6.0-66.0,go_nogo_deval,429,,<div></div>,32,1400,test,,,,,,,,,,,,-1,-1,500,0,fixation,poldrack-single-stim,127,283934,0.0-6.0-67.0,go_nogo_deval,429,,<div class = centerbox><div class = fixation>+</div></div>,none,500,test,,,,,,,,,,,,-1,-1,850,0,stim,poldrack-single-stim,128,284786,0.0-6.0-68.0,go_nogo_deval,429,,<img class = center src='/static/experiments/go_nogo_deval/images/red_pentagon.png'></img>,32,850,test,red_pentagon,nogo1,-1,22,0,,,,,,,-1,-1,1400,0,ITI,poldrack-single-stim,129,286188,0.0-6.0-69.0,go_nogo_deval,429,,<div></div>,32,1400,test,,,,,,,,,,,,-1,-1,500,0,fixation,poldrack-single-stim,130,286690,0.0-6.0-70.0,go_nogo_deval,429,,<div class = centerbox><div class = fixation>+</div></div>,none,500,test,,,,,,,,,,,,372,32,850,0,stim,poldrack-single-stim,131,287541,0.0-6.0-71.0,go_nogo_deval,429,,<img class = center src='/static/experiments/go_nogo_deval/images/green_triangle.png'></img>,32,850,test,green_triangle,go2,32,23,0,,,,,,,-1,-1,1400,0,ITI,poldrack-single-stim,132,288944,0.0-6.0-72.0,go_nogo_deval,429,,<div></div>,32,1400,test,,,,,,,,,,,,-1,-1,500,0,fixation,poldrack-single-stim,133,289446,0.0-6.0-73.0,go_nogo_deval,429,,<div class = centerbox><div class = fixation>+</div></div>,none,500,test,,,,,,,,,,,,461,32,850,0,stim,poldrack-single-stim,134,290298,0.0-6.0-74.0,go_nogo_deval,429,,<img class = center src='/static/experiments/go_nogo_deval/images/green_triangle.png'></img>,32,850,test,green_triangle,go2,32,24,0,,,,,,,-1,-1,1400,0,ITI,poldrack-single-stim,135,291700,0.0-6.0-75.0,go_nogo_deval,429,,<div></div>,32,1400,test,,,,,,,,,,,,-1,-1,500,0,fixation,poldrack-single-stim,136,292202,0.0-6.0-76.0,go_nogo_deval,429,,<div class = centerbox><div class = fixation>+</div></div>,none,500,test,,,,,,,,,,,,-1,-1,850,0,stim,poldrack-single-stim,137,293053,0.0-6.0-77.0,go_nogo_deval,429,,<img class = center src='/static/experiments/go_nogo_deval/images/blue_circle.png'></img>,32,850,test,blue_circle,nogo2,-1,25,0,,,,,,,-1,-1,1400,0,ITI,poldrack-single-stim,138,294455,0.0-6.0-78.0,go_nogo_deval,429,,<div></div>,32,1400,test,,,,,,,,,,,,-1,-1,500,0,fixation,poldrack-single-stim,139,294956,0.0-6.0-79.0,go_nogo_deval,429,,<div class = centerbox><div class = fixation>+</div></div>,none,500,test,,,,,,,,,,,,-1,-1,850,0,stim,poldrack-single-stim,140,295807,0.0-6.0-80.0,go_nogo_deval,429,,<img class = center src='/static/experiments/go_nogo_deval/images/blue_circle.png'></img>,32,850,test,blue_circle,nogo2,-1,26,0,,,,,,,-1,-1,1400,0,ITI,poldrack-single-stim,141,297209,0.0-6.0-81.0,go_nogo_deval,429,,<div></div>,32,1400,test,,,,,,,,,,,,-1,-1,500,0,fixation,poldrack-single-stim,142,297711,0.0-6.0-82.0,go_nogo_deval,429,,<div class = centerbox><div class = fixation>+</div></div>,none,500,test,,,,,,,,,,,,388,32,850,0,stim,poldrack-single-stim,143,298563,0.0-6.0-83.0,go_nogo_deval,429,,<img class = center src='/static/experiments/go_nogo_deval/images/green_triangle.png'></img>,32,850,test,green_triangle,go2,32,27,0,,,,,,,-1,-1,1400,0,ITI,poldrack-single-stim,144,299965,0.0-6.0-84.0,go_nogo_deval,429,,<div></div>,32,1400,test,,,,,,,,,,,,-1,-1,500,0,fixation,poldrack-single-stim,145,300466,0.0-6.0-85.0,go_nogo_deval,429,,<div class = centerbox><div class = fixation>+</div></div>,none,500,test,,,,,,,,,,,,-1,-1,850,0,stim,poldrack-single-stim,146,301318,0.0-6.0-86.0,go_nogo_deval,429,,<img class = center src='/static/experiments/go_nogo_deval/images/blue_circle.png'></img>,32,850,test,blue_circle,nogo2,-1,28,0,,,,,,,-1,-1,1400,0,ITI,poldrack-single-stim,147,302720,0.0-6.0-87.0,go_nogo_deval,429,,<div></div>,32,1400,test,,,,,,,,,,,,-1,-1,500,0,fixation,poldrack-single-stim,148,303221,0.0-6.0-88.0,go_nogo_deval,429,,<div class = centerbox><div class = fixation>+</div></div>,none,500,test,,,,,,,,,,,,-1,-1,850,0,stim,poldrack-single-stim,149,304073,0.0-6.0-89.0,go_nogo_deval,429,,<img class = center src='/static/experiments/go_nogo_deval/images/blue_circle.png'></img>,32,850,test,blue_circle,nogo2,-1,29,0,,,,,,,-1,-1,1400,0,ITI,poldrack-single-stim,150,305475,0.0-6.0-90.0,go_nogo_deval,429,,<div></div>,32,1400,test,,,,,,,,,,,,-1,-1,500,0,fixation,poldrack-single-stim,151,305976,0.0-6.0-91.0,go_nogo_deval,429,,<div class = centerbox><div class = fixation>+</div></div>,none,500,test,,,,,,,,,,,,502,32,850,0,stim,poldrack-single-stim,152,306828,0.0-6.0-92.0,go_nogo_deval,429,,<img class = center src='/static/experiments/go_nogo_deval/images/green_triangle.png'></img>,32,850,test,green_triangle,go2,32,30,0,,,,,,,-1,-1,1400,0,ITI,poldrack-single-stim,153,308229,0.0-6.0-93.0,go_nogo_deval,429,,<div></div>,32,1400,test,,,,,,,,,,,,-1,-1,500,0,fixation,poldrack-single-stim,154,308731,0.0-6.0-94.0,go_nogo_deval,429,,<div class = centerbox><div class = fixation>+</div></div>,none,500,test,,,,,,,,,,,,-1,-1,850,0,stim,poldrack-single-stim,155,309583,0.0-6.0-95.0,go_nogo_deval,429,,<img class = center src='/static/experiments/go_nogo_deval/images/blue_circle.png'></img>,32,850,test,blue_circle,nogo2,-1,31,0,,,,,,,-1,-1,1400,0,ITI,poldrack-single-stim,156,310985,0.0-6.0-96.0,go_nogo_deval,429,,<div></div>,32,1400,test,,,,,,,,,,,,-1,-1,500,0,fixation,poldrack-single-stim,157,311485,0.0-6.0-97.0,go_nogo_deval,429,,<div class = centerbox><div class = fixation>+</div></div>,none,500,test,,,,,,,,,,,,-1,-1,850,0,stim,poldrack-single-stim,158,312336,0.0-6.0-98.0,go_nogo_deval,429,,<img class = center src='/static/experiments/go_nogo_deval/images/red_pentagon.png'></img>,32,850,test,red_pentagon,nogo1,-1,32,0,,,,,,,-1,-1,1400,0,ITI,poldrack-single-stim,159,313738,0.0-6.0-99.0,go_nogo_deval,429,,<div></div>,32,1400,test,,,,,,,,,,,,-1,-1,500,0,fixation,poldrack-single-stim,160,314238,0.0-6.0-100.0,go_nogo_deval,429,,<div class = centerbox><div class = fixation>+</div></div>,none,500,test,,,,,,,,,,,,341,32,850,0,stim,poldrack-single-stim,161,315090,0.0-6.0-101.0,go_nogo_deval,429,,<img class = center src='/static/experiments/go_nogo_deval/images/green_triangle.png'></img>,32,850,test,green_triangle,go2,32,33,0,,,,,,,-1,-1,1400,0,ITI,poldrack-single-stim,162,316492,0.0-6.0-102.0,go_nogo_deval,429,,<div></div>,32,1400,test,,,,,,,,,,,,-1,-1,500,0,fixation,poldrack-single-stim,163,316994,0.0-6.0-103.0,go_nogo_deval,429,,<div class = centerbox><div class = fixation>+</div></div>,none,500,test,,,,,,,,,,,,409,32,850,0,stim,poldrack-single-stim,164,317846,0.0-6.0-104.0,go_nogo_deval,429,,<img class = center src='/static/experiments/go_nogo_deval/images/green_triangle.png'></img>,32,850,test,green_triangle,go2,32,34,0,,,,,,,-1,-1,1400,0,ITI,poldrack-single-stim,165,319248,0.0-6.0-105.0,go_nogo_deval,429,,<div></div>,32,1400,test,,,,,,,,,,,,-1,-1,500,0,fixation,poldrack-single-stim,166,319749,0.0-6.0-106.0,go_nogo_deval,429,,<div class = centerbox><div class = fixation>+</div></div>,none,500,test,,,,,,,,,,,,287,32,850,0,stim,poldrack-single-stim,167,320601,0.0-6.0-107.0,go_nogo_deval,429,,<img class = center src='/static/experiments/go_nogo_deval/images/purple_rhombus.png'></img>,32,850,test,purple_rhombus,go1,32,35,0,,,,,,,-1,-1,1400,0,ITI,poldrack-single-stim,168,322003,0.0-6.0-108.0,go_nogo_deval,429,,<div></div>,32,1400,test,,,,,,,,,,,,-1,-1,500,0,fixation,poldrack-single-stim,169,322505,0.0-6.0-109.0,go_nogo_deval,429,,<div class = centerbox><div class = fixation>+</div></div>,none,500,test,,,,,,,,,,,,399,32,850,0,stim,poldrack-single-stim,170,323356,0.0-6.0-110.0,go_nogo_deval,429,,<img class = center src='/static/experiments/go_nogo_deval/images/green_triangle.png'></img>,32,850,test,green_triangle,go2,32,36,0,,,,,,,-1,-1,1400,0,ITI,poldrack-single-stim,171,324758,0.0-6.0-111.0,go_nogo_deval,429,,<div></div>,32,1400,test,,,,,,,,,,,,-1,-1,500,0,fixation,poldrack-single-stim,172,325260,0.0-6.0-112.0,go_nogo_deval,429,,<div class = centerbox><div class = fixation>+</div></div>,none,500,test,,,,,,,,,,,,424,32,850,0,stim,poldrack-single-stim,173,326111,0.0-6.0-113.0,go_nogo_deval,429,,<img class = center src='/static/experiments/go_nogo_deval/images/purple_rhombus.png'></img>,32,850,test,purple_rhombus,go1,32,37,0,,,,,,,-1,-1,1400,0,ITI,poldrack-single-stim,174,327512,0.0-6.0-114.0,go_nogo_deval,429,,<div></div>,32,1400,test,,,,,,,,,,,,-1,-1,500,0,fixation,poldrack-single-stim,175,328014,0.0-6.0-115.0,go_nogo_deval,429,,<div class = centerbox><div class = fixation>+</div></div>,none,500,test,,,,,,,,,,,,358,32,850,0,stim,poldrack-single-stim,176,328865,0.0-6.0-116.0,go_nogo_deval,429,,<img class = center src='/static/experiments/go_nogo_deval/images/purple_rhombus.png'></img>,32,850,test,purple_rhombus,go1,32,38,0,,,,,,,-1,-1,1400,0,ITI,poldrack-single-stim,177,330266,0.0-6.0-117.0,go_nogo_deval,429,,<div></div>,32,1400,test,,,,,,,,,,,,-1,-1,500,0,fixation,poldrack-single-stim,178,330768,0.0-6.0-118.0,go_nogo_deval,429,,<div class = centerbox><div class = fixation>+</div></div>,none,500,test,,,,,,,,,,,,372,32,850,0,stim,poldrack-single-stim,179,331620,0.0-6.0-119.0,go_nogo_deval,429,,<img class = center src='/static/experiments/go_nogo_deval/images/green_triangle.png'></img>,32,850,test,green_triangle,go2,32,39,0,,,,,,,-1,-1,1400,0,ITI,poldrack-single-stim,180,333021,0.0-6.0-120.0,go_nogo_deval,429,,<div></div>,32,1400,test,,,,,,,,,,,,-1,-1,500,0,fixation,poldrack-single-stim,181,333523,0.0-6.0-121.0,go_nogo_deval,429,,<div class = centerbox><div class = fixation>+</div></div>,none,500,test,,,,,,,,,,,,260,32,850,0,stim,poldrack-single-stim,182,334373,0.0-6.0-122.0,go_nogo_deval,429,,<img class = center src='/static/experiments/go_nogo_deval/images/green_triangle.png'></img>,32,850,test,green_triangle,go2,32,40,0,,,,,,,-1,-1,1400,0,ITI,poldrack-single-stim,183,335775,0.0-6.0-123.0,go_nogo_deval,429,,<div></div>,32,1400,test,,,,,,,,,,,,-1,-1,500,0,fixation,poldrack-single-stim,184,336277,0.0-6.0-124.0,go_nogo_deval,429,,<div class = centerbox><div class = fixation>+</div></div>,none,500,test,,,,,,,,,,,,297,32,850,0,stim,poldrack-single-stim,185,337129,0.0-6.0-125.0,go_nogo_deval,429,,<img class = center src='/static/experiments/go_nogo_deval/images/green_triangle.png'></img>,32,850,test,green_triangle,go2,32,41,0,,,,,,,-1,-1,1400,0,ITI,poldrack-single-stim,186,338530,0.0-6.0-126.0,go_nogo_deval,429,,<div></div>,32,1400,test,,,,,,,,,,,,-1,-1,500,0,fixation,poldrack-single-stim,187,339031,0.0-6.0-127.0,go_nogo_deval,429,,<div class = centerbox><div class = fixation>+</div></div>,none,500,test,,,,,,,,,,,,286,32,850,0,stim,poldrack-single-stim,188,339882,0.0-6.0-128.0,go_nogo_deval,429,,<img class = center src='/static/experiments/go_nogo_deval/images/purple_rhombus.png'></img>,32,850,test,purple_rhombus,go1,32,42,0,,,,,,,-1,-1,1400,0,ITI,poldrack-single-stim,189,341284,0.0-6.0-129.0,go_nogo_deval,429,,<div></div>,32,1400,test,,,,,,,,,,,,-1,-1,500,0,fixation,poldrack-single-stim,190,341786,0.0-6.0-130.0,go_nogo_deval,429,,<div class = centerbox><div class = fixation>+</div></div>,none,500,test,,,,,,,,,,,,378,32,850,0,stim,poldrack-single-stim,191,342638,0.0-6.0-131.0,go_nogo_deval,429,,<img class = center src='/static/experiments/go_nogo_deval/images/purple_rhombus.png'></img>,32,850,test,purple_rhombus,go1,32,43,0,,,,,,,-1,-1,1400,0,ITI,poldrack-single-stim,192,344039,0.0-6.0-132.0,go_nogo_deval,429,,<div></div>,32,1400,test,,,,,,,,,,,,-1,-1,500,0,fixation,poldrack-single-stim,193,344540,0.0-6.0-133.0,go_nogo_deval,429,,<div class = centerbox><div class = fixation>+</div></div>,none,500,test,,,,,,,,,,,,392,32,850,0,stim,poldrack-single-stim,194,345391,0.0-6.0-134.0,go_nogo_deval,429,,<img class = center src='/static/experiments/go_nogo_deval/images/purple_rhombus.png'></img>,32,850,test,purple_rhombus,go1,32,44,0,,,,,,,-1,-1,1400,0,ITI,poldrack-single-stim,195,346793,0.0-6.0-135.0,go_nogo_deval,429,,<div></div>,32,1400,test,,,,,,,,,,,,-1,-1,500,0,fixation,poldrack-single-stim,196,347295,0.0-6.0-136.0,go_nogo_deval,429,,<div class = centerbox><div class = fixation>+</div></div>,none,500,test,,,,,,,,,,,,349,32,850,0,stim,poldrack-single-stim,197,348146,0.0-6.0-137.0,go_nogo_deval,429,,<img class = center src='/static/experiments/go_nogo_deval/images/purple_rhombus.png'></img>,32,850,test,purple_rhombus,go1,32,45,0,,,,,,,-1,-1,1400,0,ITI,poldrack-single-stim,198,349547,0.0-6.0-138.0,go_nogo_deval,429,,<div></div>,32,1400,test,,,,,,,,,,,,-1,-1,500,0,fixation,poldrack-single-stim,199,350049,0.0-6.0-139.0,go_nogo_deval,429,,<div class = centerbox><div class = fixation>+</div></div>,none,500,test,,,,,,,,,,,,418,32,850,0,stim,poldrack-single-stim,200,350900,0.0-6.0-140.0,go_nogo_deval,429,,<img class = center src='/static/experiments/go_nogo_deval/images/green_triangle.png'></img>,32,850,test,green_triangle,go2,32,46,0,,,,,,,-1,-1,1400,0,ITI,poldrack-single-stim,201,352301,0.0-6.0-141.0,go_nogo_deval,429,,<div></div>,32,1400,test,,,,,,,,,,,,-1,-1,500,0,fixation,poldrack-single-stim,202,352803,0.0-6.0-142.0,go_nogo_deval,429,,<div class = centerbox><div class = fixation>+</div></div>,none,500,test,,,,,,,,,,,,398,32,850,0,stim,poldrack-single-stim,203,353655,0.0-6.0-143.0,go_nogo_deval,429,,<img class = center src='/static/experiments/go_nogo_deval/images/red_pentagon.png'></img>,32,850,test,red_pentagon,nogo1,-1,47,0,,,,,,,-1,-1,1400,0,ITI,poldrack-single-stim,204,355056,0.0-6.0-144.0,go_nogo_deval,429,,<div></div>,32,1400,test,,,,,,,,,,,,21554,13,21554,0,practice-no-stop-feedback,poldrack-single-stim,205,376613,0.0-6.1-0.1,go_nogo_deval,429,,"<div class = centerbox><p class = block-text><br>Please take this time to read your feedback and to take a short break! Press enter to continue</p><p class = block-text><strong>Average reaction time:  419 ms. Accuracy: 94%</strong></p><p class = block-text>We have detected a number of trials that <strong>required no response</strong>, where a response was made.  Please <strong>ensure that you do not respond </strong>to shapes that require no response</p></div>",13,21554,,,,,,,,,,,,,-1,-1,500,0,fixation,poldrack-single-stim,206,377114,0.0-6.1-1.1,go_nogo_deval,429,,<div class = centerbox><div class = fixation>+</div></div>,none,500,test,,,,,,,,,,,,826,32,850,0,stim,poldrack-single-stim,207,377966,0.0-6.1-2.1,go_nogo_deval,429,,<img class = center src='/static/experiments/go_nogo_deval/images/green_triangle.png'></img>,32,850,test,green_triangle,go2,32,0,1,,,,,,,-1,-1,1400,0,ITI,poldrack-single-stim,208,379368,0.0-6.1-3.1,go_nogo_deval,429,,<div></div>,32,1400,test,,,,,,,,,,,,-1,-1,500,0,fixation,poldrack-single-stim,209,379869,0.0-6.1-4.1,go_nogo_deval,429,,<div class = centerbox><div class = fixation>+</div></div>,none,500,test,,,,,,,,,,,,332,32,850,0,stim,poldrack-single-stim,210,380721,0.0-6.1-5.1,go_nogo_deval,429,,<img class = center src='/static/experiments/go_nogo_deval/images/green_triangle.png'></img>,32,850,test,green_triangle,go2,32,1,1,,,,,,,-1,-1,1400,0,ITI,poldrack-single-stim,211,382123,0.0-6.1-6.1,go_nogo_deval,429,,<div></div>,32,1400,test,,,,,,,,,,,,-1,-1,500,0,fixation,poldrack-single-stim,212,382624,0.0-6.1-7.1,go_nogo_deval,429,,<div class = centerbox><div class = fixation>+</div></div>,none,500,test,,,,,,,,,,,,422,32,850,0,stim,poldrack-single-stim,213,383476,0.0-6.1-8.1,go_nogo_deval,429,,<img class = center src='/static/experiments/go_nogo_deval/images/purple_rhombus.png'></img>,32,850,test,purple_rhombus,go1,32,2,1,,,,,,,-1,-1,1400,0,ITI,poldrack-single-stim,214,384877,0.0-6.1-9.1,go_nogo_deval,429,,<div></div>,32,1400,test,,,,,,,,,,,,-1,-1,500,0,fixation,poldrack-single-stim,215,385378,0.0-6.1-10.1,go_nogo_deval,429,,<div class = centerbox><div class = fixation>+</div></div>,none,500,test,,,,,,,,,,,,312,32,850,0,stim,poldrack-single-stim,216,386230,0.0-6.1-11.1,go_nogo_deval,429,,<img class = center src='/static/experiments/go_nogo_deval/images/purple_rhombus.png'></img>,32,850,test,purple_rhombus,go1,32,3,1,,,,,,,-1,-1,1400,0,ITI,poldrack-single-stim,217,387632,0.0-6.1-12.1,go_nogo_deval,429,,<div></div>,32,1400,test,,,,,,,,,,,,-1,-1,500,0,fixation,poldrack-single-stim,218,388134,0.0-6.1-13.1,go_nogo_deval,429,,<div class = centerbox><div class = fixation>+</div></div>,none,500,test,,,,,,,,,,,,-1,-1,850,0,stim,poldrack-single-stim,219,388986,0.0-6.1-14.1,go_nogo_deval,429,,<img class = center src='/static/experiments/go_nogo_deval/images/red_pentagon.png'></img>,32,850,test,red_pentagon,nogo1,-1,4,1,,,,,,,-1,-1,1400,0,ITI,poldrack-single-stim,220,390387,0.0-6.1-15.1,go_nogo_deval,429,,<div></div>,32,1400,test,,,,,,,,,,,,-1,-1,500,0,fixation,poldrack-single-stim,221,390888,0.0-6.1-16.1,go_nogo_deval,429,,<div class = centerbox><div class = fixation>+</div></div>,none,500,test,,,,,,,,,,,,384,32,850,0,stim,poldrack-single-stim,222,391740,0.0-6.1-17.1,go_nogo_deval,429,,<img class = center src='/static/experiments/go_nogo_deval/images/green_triangle.png'></img>,32,850,test,green_triangle,go2,32,5,1,,,,,,,-1,-1,1400,0,ITI,poldrack-single-stim,223,393140,0.0-6.1-18.1,go_nogo_deval,429,,<div></div>,32,1400,test,,,,,,,,,,,,-1,-1,500,0,fixation,poldrack-single-stim,224,393642,0.0-6.1-19.1,go_nogo_deval,429,,<div class = centerbox><div class = fixation>+</div></div>,none,500,test,,,,,,,,,,,,431,32,850,0,stim,poldrack-single-stim,225,394493,0.0-6.1-20.1,go_nogo_deval,429,,<img class = center src='/static/experiments/go_nogo_deval/images/green_triangle.png'></img>,32,850,test,green_triangle,go2,32,6,1,,,,,,,-1,-1,1400,0,ITI,poldrack-single-stim,226,395895,0.0-6.1-21.1,go_nogo_deval,429,,<div></div>,32,1400,test,,,,,,,,,,,,-1,-1,500,0,fixation,poldrack-single-stim,227,396397,0.0-6.1-22.1,go_nogo_deval,429,,<div class = centerbox><div class = fixation>+</div></div>,none,500,test,,,,,,,,,,,,421,32,850,0,stim,poldrack-single-stim,228,397248,0.0-6.1-23.1,go_nogo_deval,429,,<img class = center src='/static/experiments/go_nogo_deval/images/purple_rhombus.png'></img>,32,850,test,purple_rhombus,go1,32,7,1,,,,,,,-1,-1,1400,0,ITI,poldrack-single-stim,229,398649,0.0-6.1-24.1,go_nogo_deval,429,,<div></div>,32,1400,test,,,,,,,,,,,,-1,-1,500,0,fixation,poldrack-single-stim,230,399151,0.0-6.1-25.1,go_nogo_deval,429,,<div class = centerbox><div class = fixation>+</div></div>,none,500,test,,,,,,,,,,,,-1,-1,850,0,stim,poldrack-single-stim,231,400003,0.0-6.1-26.1,go_nogo_deval,429,,<img class = center src='/static/experiments/go_nogo_deval/images/red_pentagon.png'></img>,32,850,test,red_pentagon,nogo1,-1,8,1,,,,,,,-1,-1,1400,0,ITI,poldrack-single-stim,232,401405,0.0-6.1-27.1,go_nogo_deval,429,,<div></div>,32,1400,test,,,,,,,,,,,,-1,-1,500,0,fixation,poldrack-single-stim,233,401906,0.0-6.1-28.1,go_nogo_deval,429,,<div class = centerbox><div class = fixation>+</div></div>,none,500,test,,,,,,,,,,,,-1,-1,850,0,stim,poldrack-single-stim,234,402758,0.0-6.1-29.1,go_nogo_deval,429,,<img class = center src='/static/experiments/go_nogo_deval/images/red_pentagon.png'></img>,32,850,test,red_pentagon,nogo1,-1,9,1,,,,,,,-1,-1,1400,0,ITI,poldrack-single-stim,235,404159,0.0-6.1-30.1,go_nogo_deval,429,,<div></div>,32,1400,test,,,,,,,,,,,,-1,-1,500,0,fixation,poldrack-single-stim,236,404662,0.0-6.1-31.1,go_nogo_deval,429,,<div class = centerbox><div class = fixation>+</div></div>,none,500,test,,,,,,,,,,,,290,32,850,0,stim,poldrack-single-stim,237,405514,0.0-6.1-32.1,go_nogo_deval,429,,<img class = center src='/static/experiments/go_nogo_deval/images/green_triangle.png'></img>,32,850,test,green_triangle,go2,32,10,1,,,,,,,-1,-1,1400,0,ITI,poldrack-single-stim,238,406915,0.0-6.1-33.1,go_nogo_deval,429,,<div></div>,32,1400,test,,,,,,,,,,,,-1,-1,500,0,fixation,poldrack-single-stim,239,407416,0.0-6.1-34.1,go_nogo_deval,429,,<div class = centerbox><div class = fixation>+</div></div>,none,500,test,,,,,,,,,,,,437,32,850,0,stim,poldrack-single-stim,240,408268,0.0-6.1-35.1,go_nogo_deval,429,,<img class = center src='/static/experiments/go_nogo_deval/images/purple_rhombus.png'></img>,32,850,test,purple_rhombus,go1,32,11,1,,,,,,,-1,-1,1400,0,ITI,poldrack-single-stim,241,409670,0.0-6.1-36.1,go_nogo_deval,429,,<div></div>,32,1400,test,,,,,,,,,,,,-1,-1,500,0,fixation,poldrack-single-stim,242,410172,0.0-6.1-37.1,go_nogo_deval,429,,<div class = centerbox><div class = fixation>+</div></div>,none,500,test,,,,,,,,,,,,450,32,850,0,stim,poldrack-single-stim,243,411024,0.0-6.1-38.1,go_nogo_deval,429,,<img class = center src='/static/experiments/go_nogo_deval/images/purple_rhombus.png'></img>,32,850,test,purple_rhombus,go1,32,12,1,,,,,,,-1,-1,1400,0,ITI,poldrack-single-stim,244,412425,0.0-6.1-39.1,go_nogo_deval,429,,<div></div>,32,1400,test,,,,,,,,,,,,-1,-1,500,0,fixation,poldrack-single-stim,245,412927,0.0-6.1-40.1,go_nogo_deval,429,,<div class = centerbox><div class = fixation>+</div></div>,none,500,test,,,,,,,,,,,,372,32,850,0,stim,poldrack-single-stim,246,413779,0.0-6.1-41.1,go_nogo_deval,429,,<img class = center src='/static/experiments/go_nogo_deval/images/green_triangle.png'></img>,32,850,test,green_triangle,go2,32,13,1,,,,,,,-1,-1,1400,0,ITI,poldrack-single-stim,247,415180,0.0-6.1-42.1,go_nogo_deval,429,,<div></div>,32,1400,test,,,,,,,,,,,,-1,-1,500,0,fixation,poldrack-single-stim,248,415681,0.0-6.1-43.1,go_nogo_deval,429,,<div class = centerbox><div class = fixation>+</div></div>,none,500,test,,,,,,,,,,,,-1,-1,850,0,stim,poldrack-single-stim,249,416533,0.0-6.1-44.1,go_nogo_deval,429,,<img class = center src='/static/experiments/go_nogo_deval/images/blue_circle.png'></img>,32,850,test,blue_circle,nogo2,-1,14,1,,,,,,,-1,-1,1400,0,ITI,poldrack-single-stim,250,417934,0.0-6.1-45.1,go_nogo_deval,429,,<div></div>,32,1400,test,,,,,,,,,,,,-1,-1,500,0,fixation,poldrack-single-stim,251,418436,0.0-6.1-46.1,go_nogo_deval,429,,<div class = centerbox><div class = fixation>+</div></div>,none,500,test,,,,,,,,,,,,410,32,850,0,stim,poldrack-single-stim,252,419288,0.0-6.1-47.1,go_nogo_deval,429,,<img class = center src='/static/experiments/go_nogo_deval/images/green_triangle.png'></img>,32,850,test,green_triangle,go2,32,15,1,,,,,,,-1,-1,1400,0,ITI,poldrack-single-stim,253,420690,0.0-6.1-48.1,go_nogo_deval,429,,<div></div>,32,1400,test,,,,,,,,,,,,-1,-1,500,0,fixation,poldrack-single-stim,254,421191,0.0-6.1-49.1,go_nogo_deval,429,,<div class = centerbox><div class = fixation>+</div></div>,none,500,test,,,,,,,,,,,,421,32,850,0,stim,poldrack-single-stim,255,422042,0.0-6.1-50.1,go_nogo_deval,429,,<img class = center src='/static/experiments/go_nogo_deval/images/purple_rhombus.png'></img>,32,850,test,purple_rhombus,go1,32,16,1,,,,,,,-1,-1,1400,0,ITI,poldrack-single-stim,256,423444,0.0-6.1-51.1,go_nogo_deval,429,,<div></div>,32,1400,test,,,,,,,,,,,,-1,-1,500,0,fixation,poldrack-single-stim,257,423945,0.0-6.1-52.1,go_nogo_deval,429,,<div class = centerbox><div class = fixation>+</div></div>,none,500,test,,,,,,,,,,,,491,32,850,0,stim,poldrack-single-stim,258,424797,0.0-6.1-53.1,go_nogo_deval,429,,<img class = center src='/static/experiments/go_nogo_deval/images/purple_rhombus.png'></img>,32,850,test,purple_rhombus,go1,32,17,1,,,,,,,-1,-1,1400,0,ITI,poldrack-single-stim,259,426198,0.0-6.1-54.1,go_nogo_deval,429,,<div></div>,32,1400,test,,,,,,,,,,,,-1,-1,500,0,fixation,poldrack-single-stim,260,426700,0.0-6.1-55.1,go_nogo_deval,429,,<div class = centerbox><div class = fixation>+</div></div>,none,500,test,,,,,,,,,,,,413,32,850,0,stim,poldrack-single-stim,261,427551,0.0-6.1-56.1,go_nogo_deval,429,,<img class = center src='/static/experiments/go_nogo_deval/images/purple_rhombus.png'></img>,32,850,test,purple_rhombus,go1,32,18,1,,,,,,,-1,-1,1400,0,ITI,poldrack-single-stim,262,428953,0.0-6.1-57.1,go_nogo_deval,429,,<div></div>,32,1400,test,,,,,,,,,,,,-1,-1,500,0,fixation,poldrack-single-stim,263,429455,0.0-6.1-58.1,go_nogo_deval,429,,<div class = centerbox><div class = fixation>+</div></div>,none,500,test,,,,,,,,,,,,-1,-1,850,0,stim,poldrack-single-stim,264,430307,0.0-6.1-59.1,go_nogo_deval,429,,<img class = center src='/static/experiments/go_nogo_deval/images/red_pentagon.png'></img>,32,850,test,red_pentagon,nogo1,-1,19,1,,,,,,,-1,-1,1400,0,ITI,poldrack-single-stim,265,431707,0.0-6.1-60.1,go_nogo_deval,429,,<div></div>,32,1400,test,,,,,,,,,,,,-1,-1,500,0,fixation,poldrack-single-stim,266,432208,0.0-6.1-61.1,go_nogo_deval,429,,<div class = centerbox><div class = fixation>+</div></div>,none,500,test,,,,,,,,,,,,407,32,850,0,stim,poldrack-single-stim,267,433059,0.0-6.1-62.1,go_nogo_deval,429,,<img class = center src='/static/experiments/go_nogo_deval/images/green_triangle.png'></img>,32,850,test,green_triangle,go2,32,20,1,,,,,,,-1,-1,1400,0,ITI,poldrack-single-stim,268,434461,0.0-6.1-63.1,go_nogo_deval,429,,<div></div>,32,1400,test,,,,,,,,,,,,-1,-1,500,0,fixation,poldrack-single-stim,269,434963,0.0-6.1-64.1,go_nogo_deval,429,,<div class = centerbox><div class = fixation>+</div></div>,none,500,test,,,,,,,,,,,,-1,-1,850,0,stim,poldrack-single-stim,270,435815,0.0-6.1-65.1,go_nogo_deval,429,,<img class = center src='/static/experiments/go_nogo_deval/images/blue_circle.png'></img>,32,850,test,blue_circle,nogo2,-1,21,1,,,,,,,-1,-1,1400,0,ITI,poldrack-single-stim,271,437216,0.0-6.1-66.1,go_nogo_deval,429,,<div></div>,32,1400,test,,,,,,,,,,,,-1,-1,500,0,fixation,poldrack-single-stim,272,437718,0.0-6.1-67.1,go_nogo_deval,429,,<div class = centerbox><div class = fixation>+</div></div>,none,500,test,,,,,,,,,,,,388,32,850,0,stim,poldrack-single-stim,273,438568,0.0-6.1-68.1,go_nogo_deval,429,,<img class = center src='/static/experiments/go_nogo_deval/images/green_triangle.png'></img>,32,850,test,green_triangle,go2,32,22,1,,,,,,,-1,-1,1400,0,ITI,poldrack-single-stim,274,439970,0.0-6.1-69.1,go_nogo_deval,429,,<div></div>,32,1400,test,,,,,,,,,,,,-1,-1,500,0,fixation,poldrack-single-stim,275,440471,0.0-6.1-70.1,go_nogo_deval,429,,<div class = centerbox><div class = fixation>+</div></div>,none,500,test,,,,,,,,,,,,-1,-1,850,0,stim,poldrack-single-stim,276,441323,0.0-6.1-71.1,go_nogo_deval,429,,<img class = center src='/static/experiments/go_nogo_deval/images/blue_circle.png'></img>,32,850,test,blue_circle,nogo2,-1,23,1,,,,,,,-1,-1,1400,0,ITI,poldrack-single-stim,277,442724,0.0-6.1-72.1,go_nogo_deval,429,,<div></div>,32,1400,test,,,,,,,,,,,,-1,-1,500,0,fixation,poldrack-single-stim,278,443226,0.0-6.1-73.1,go_nogo_deval,429,,<div class = centerbox><div class = fixation>+</div></div>,none,500,test,,,,,,,,,,,,437,32,850,0,stim,poldrack-single-stim,279,444077,0.0-6.1-74.1,go_nogo_deval,429,,<img class = center src='/static/experiments/go_nogo_deval/images/green_triangle.png'></img>,32,850,test,green_triangle,go2,32,24,1,,,,,,,-1,-1,1400,0,ITI,poldrack-single-stim,280,445479,0.0-6.1-75.1,go_nogo_deval,429,,<div></div>,32,1400,test,,,,,,,,,,,,-1,-1,500,0,fixation,poldrack-single-stim,281,445981,0.0-6.1-76.1,go_nogo_deval,429,,<div class = centerbox><div class = fixation>+</div></div>,none,500,test,,,,,,,,,,,,-1,-1,850,0,stim,poldrack-single-stim,282,446833,0.0-6.1-77.1,go_nogo_deval,429,,<img class = center src='/static/experiments/go_nogo_deval/images/red_pentagon.png'></img>,32,850,test,red_pentagon,nogo1,-1,25,1,,,,,,,-1,-1,1400,0,ITI,poldrack-single-stim,283,448233,0.0-6.1-78.1,go_nogo_deval,429,,<div></div>,32,1400,test,,,,,,,,,,,,-1,-1,500,0,fixation,poldrack-single-stim,284,448735,0.0-6.1-79.1,go_nogo_deval,429,,<div class = centerbox><div class = fixation>+</div></div>,none,500,test,,,,,,,,,,,,484,32,850,0,stim,poldrack-single-stim,285,449587,0.0-6.1-80.1,go_nogo_deval,429,,<img class = center src='/static/experiments/go_nogo_deval/images/purple_rhombus.png'></img>,32,850,test,purple_rhombus,go1,32,26,1,,,,,,,-1,-1,1400,0,ITI,poldrack-single-stim,286,450989,0.0-6.1-81.1,go_nogo_deval,429,,<div></div>,32,1400,test,,,,,,,,,,,,-1,-1,500,0,fixation,poldrack-single-stim,287,451490,0.0-6.1-82.1,go_nogo_deval,429,,<div class = centerbox><div class = fixation>+</div></div>,none,500,test,,,,,,,,,,,,453,32,850,0,stim,poldrack-single-stim,288,452342,0.0-6.1-83.1,go_nogo_deval,429,,<img class = center src='/static/experiments/go_nogo_deval/images/purple_rhombus.png'></img>,32,850,test,purple_rhombus,go1,32,27,1,,,,,,,-1,-1,1400,0,ITI,poldrack-single-stim,289,453742,0.0-6.1-84.1,go_nogo_deval,429,,<div></div>,32,1400,test,,,,,,,,,,,,-1,-1,500,0,fixation,poldrack-single-stim,290,454244,0.0-6.1-85.1,go_nogo_deval,429,,<div class = centerbox><div class = fixation>+</div></div>,none,500,test,,,,,,,,,,,,-1,-1,850,0,stim,poldrack-single-stim,291,455096,0.0-6.1-86.1,go_nogo_deval,429,,<img class = center src='/static/experiments/go_nogo_deval/images/blue_circle.png'></img>,32,850,test,blue_circle,nogo2,-1,28,1,,,,,,,-1,-1,1400,0,ITI,poldrack-single-stim,292,456498,0.0-6.1-87.1,go_nogo_deval,429,,<div></div>,32,1400,test,,,,,,,,,,,,-1,-1,500,0,fixation,poldrack-single-stim,293,457000,0.0-6.1-88.1,go_nogo_deval,429,,<div class = centerbox><div class = fixation>+</div></div>,none,500,test,,,,,,,,,,,,366,32,850,0,stim,poldrack-single-stim,294,457852,0.0-6.1-89.1,go_nogo_deval,429,,<img class = center src='/static/experiments/go_nogo_deval/images/purple_rhombus.png'></img>,32,850,test,purple_rhombus,go1,32,29,1,,,,,,,-1,-1,1400,0,ITI,poldrack-single-stim,295,459253,0.0-6.1-90.1,go_nogo_deval,429,,<div></div>,32,1400,test,,,,,,,,,,,,-1,-1,500,0,fixation,poldrack-single-stim,296,459755,0.0-6.1-91.1,go_nogo_deval,429,,<div class = centerbox><div class = fixation>+</div></div>,none,500,test,,,,,,,,,,,,-1,-1,850,0,stim,poldrack-single-stim,297,460606,0.0-6.1-92.1,go_nogo_deval,429,,<img class = center src='/static/experiments/go_nogo_deval/images/red_pentagon.png'></img>,32,850,test,red_pentagon,nogo1,-1,30,1,,,,,,,-1,-1,1400,0,ITI,poldrack-single-stim,298,462008,0.0-6.1-93.1,go_nogo_deval,429,,<div></div>,32,1400,test,,,,,,,,,,,,-1,-1,500,0,fixation,poldrack-single-stim,299,462509,0.0-6.1-94.1,go_nogo_deval,429,,<div class = centerbox><div class = fixation>+</div></div>,none,500,test,,,,,,,,,,,,369,32,850,0,stim,poldrack-single-stim,300,463360,0.0-6.1-95.1,go_nogo_deval,429,,<img class = center src='/static/experiments/go_nogo_deval/images/blue_circle.png'></img>,32,850,test,blue_circle,nogo2,-1,31,1,,,,,,,-1,-1,1400,0,ITI,poldrack-single-stim,301,464762,0.0-6.1-96.1,go_nogo_deval,429,,<div></div>,32,1400,test,,,,,,,,,,,,-1,-1,500,0,fixation,poldrack-single-stim,302,465263,0.0-6.1-97.1,go_nogo_deval,429,,<div class = centerbox><div class = fixation>+</div></div>,none,500,test,,,,,,,,,,,,472,32,850,0,stim,poldrack-single-stim,303,466115,0.0-6.1-98.1,go_nogo_deval,429,,<img class = center src='/static/experiments/go_nogo_deval/images/purple_rhombus.png'></img>,32,850,test,purple_rhombus,go1,32,32,1,,,,,,,-1,-1,1400,0,ITI,poldrack-single-stim,304,467516,0.0-6.1-99.1,go_nogo_deval,429,,<div></div>,32,1400,test,,,,,,,,,,,,-1,-1,500,0,fixation,poldrack-single-stim,305,468018,0.0-6.1-100.1,go_nogo_deval,429,,<div class = centerbox><div class = fixation>+</div></div>,none,500,test,,,,,,,,,,,,497,32,850,0,stim,poldrack-single-stim,306,468869,0.0-6.1-101.1,go_nogo_deval,429,,<img class = center src='/static/experiments/go_nogo_deval/images/green_triangle.png'></img>,32,850,test,green_triangle,go2,32,33,1,,,,,,,-1,-1,1400,0,ITI,poldrack-single-stim,307,470271,0.0-6.1-102.1,go_nogo_deval,429,,<div></div>,32,1400,test,,,,,,,,,,,,-1,-1,500,0,fixation,poldrack-single-stim,308,470773,0.0-6.1-103.1,go_nogo_deval,429,,<div class = centerbox><div class = fixation>+</div></div>,none,500,test,,,,,,,,,,,,374,32,850,0,stim,poldrack-single-stim,309,471624,0.0-6.1-104.1,go_nogo_deval,429,,<img class = center src='/static/experiments/go_nogo_deval/images/purple_rhombus.png'></img>,32,850,test,purple_rhombus,go1,32,34,1,,,,,,,-1,-1,1400,0,ITI,poldrack-single-stim,310,473025,0.0-6.1-105.1,go_nogo_deval,429,,<div></div>,32,1400,test,,,,,,,,,,,,-1,-1,500,0,fixation,poldrack-single-stim,311,473527,0.0-6.1-106.1,go_nogo_deval,429,,<div class = centerbox><div class = fixation>+</div></div>,none,500,test,,,,,,,,,,,,354,32,850,0,stim,poldrack-single-stim,312,474378,0.0-6.1-107.1,go_nogo_deval,429,,<img class = center src='/static/experiments/go_nogo_deval/images/purple_rhombus.png'></img>,32,850,test,purple_rhombus,go1,32,35,1,,,,,,,-1,-1,1400,0,ITI,poldrack-single-stim,313,475779,0.0-6.1-108.1,go_nogo_deval,429,,<div></div>,32,1400,test,,,,,,,,,,,,-1,-1,500,0,fixation,poldrack-single-stim,314,476281,0.0-6.1-109.1,go_nogo_deval,429,,<div class = centerbox><div class = fixation>+</div></div>,none,500,test,,,,,,,,,,,,344,32,850,0,stim,poldrack-single-stim,315,477133,0.0-6.1-110.1,go_nogo_deval,429,,<img class = center src='/static/experiments/go_nogo_deval/images/green_triangle.png'></img>,32,850,test,green_triangle,go2,32,36,1,,,,,,,-1,-1,1400,0,ITI,poldrack-single-stim,316,478534,0.0-6.1-111.1,go_nogo_deval,429,,<div></div>,32,1400,test,,,,,,,,,,,,-1,-1,500,0,fixation,poldrack-single-stim,317,479036,0.0-6.1-112.1,go_nogo_deval,429,,<div class = centerbox><div class = fixation>+</div></div>,none,500,test,,,,,,,,,,,,369,32,850,0,stim,poldrack-single-stim,318,479887,0.0-6.1-113.1,go_nogo_deval,429,,<img class = center src='/static/experiments/go_nogo_deval/images/blue_circle.png'></img>,32,850,test,blue_circle,nogo2,-1,37,1,,,,,,,-1,-1,1400,0,ITI,poldrack-single-stim,319,481288,0.0-6.1-114.1,go_nogo_deval,429,,<div></div>,32,1400,test,,,,,,,,,,,,-1,-1,500,0,fixation,poldrack-single-stim,320,481790,0.0-6.1-115.1,go_nogo_deval,429,,<div class = centerbox><div class = fixation>+</div></div>,none,500,test,,,,,,,,,,,,540,32,850,0,stim,poldrack-single-stim,321,482642,0.0-6.1-116.1,go_nogo_deval,429,,<img class = center src='/static/experiments/go_nogo_deval/images/green_triangle.png'></img>,32,850,test,green_triangle,go2,32,38,1,,,,,,,-1,-1,1400,0,ITI,poldrack-single-stim,322,484043,0.0-6.1-117.1,go_nogo_deval,429,,<div></div>,32,1400,test,,,,,,,,,,,,-1,-1,500,0,fixation,poldrack-single-stim,323,484544,0.0-6.1-118.1,go_nogo_deval,429,,<div class = centerbox><div class = fixation>+</div></div>,none,500,test,,,,,,,,,,,,428,32,850,0,stim,poldrack-single-stim,324,485395,0.0-6.1-119.1,go_nogo_deval,429,,<img class = center src='/static/experiments/go_nogo_deval/images/green_triangle.png'></img>,32,850,test,green_triangle,go2,32,39,1,,,,,,,-1,-1,1400,0,ITI,poldrack-single-stim,325,486797,0.0-6.1-120.1,go_nogo_deval,429,,<div></div>,32,1400,test,,,,,,,,,,,,-1,-1,500,0,fixation,poldrack-single-stim,326,487299,0.0-6.1-121.1,go_nogo_deval,429,,<div class = centerbox><div class = fixation>+</div></div>,none,500,test,,,,,,,,,,,,453,32,850,0,stim,poldrack-single-stim,327,488150,0.0-6.1-122.1,go_nogo_deval,429,,<img class = center src='/static/experiments/go_nogo_deval/images/green_triangle.png'></img>,32,850,test,green_triangle,go2,32,40,1,,,,,,,-1,-1,1400,0,ITI,poldrack-single-stim,328,489551,0.0-6.1-123.1,go_nogo_deval,429,,<div></div>,32,1400,test,,,,,,,,,,,,-1,-1,500,0,fixation,poldrack-single-stim,329,490053,0.0-6.1-124.1,go_nogo_deval,429,,<div class = centerbox><div class = fixation>+</div></div>,none,500,test,,,,,,,,,,,,647,32,850,0,stim,poldrack-single-stim,330,490904,0.0-6.1-125.1,go_nogo_deval,429,,<img class = center src='/static/experiments/go_nogo_deval/images/purple_rhombus.png'></img>,32,850,test,purple_rhombus,go1,32,41,1,,,,,,,-1,-1,1400,0,ITI,poldrack-single-stim,331,492306,0.0-6.1-126.1,go_nogo_deval,429,,<div></div>,32,1400,test,,,,,,,,,,,,-1,-1,500,0,fixation,poldrack-single-stim,332,492808,0.0-6.1-127.1,go_nogo_deval,429,,<div class = centerbox><div class = fixation>+</div></div>,none,500,test,,,,,,,,,,,,-1,-1,850,0,stim,poldrack-single-stim,333,493660,0.0-6.1-128.1,go_nogo_deval,429,,<img class = center src='/static/experiments/go_nogo_deval/images/blue_circle.png'></img>,32,850,test,blue_circle,nogo2,-1,42,1,,,,,,,-1,-1,1400,0,ITI,poldrack-single-stim,334,495061,0.0-6.1-129.1,go_nogo_deval,429,,<div></div>,32,1400,test,,,,,,,,,,,,-1,-1,500,0,fixation,poldrack-single-stim,335,495563,0.0-6.1-130.1,go_nogo_deval,429,,<div class = centerbox><div class = fixation>+</div></div>,none,500,test,,,,,,,,,,,,524,32,850,0,stim,poldrack-single-stim,336,496414,0.0-6.1-131.1,go_nogo_deval,429,,<img class = center src='/static/experiments/go_nogo_deval/images/purple_rhombus.png'></img>,32,850,test,purple_rhombus,go1,32,43,1,,,,,,,-1,-1,1400,0,ITI,poldrack-single-stim,337,497816,0.0-6.1-132.1,go_nogo_deval,429,,<div></div>,32,1400,test,,,,,,,,,,,,-1,-1,500,0,fixation,poldrack-single-stim,338,498317,0.0-6.1-133.1,go_nogo_deval,429,,<div class = centerbox><div class = fixation>+</div></div>,none,500,test,,,,,,,,,,,,-1,-1,850,0,stim,poldrack-single-stim,339,499169,0.0-6.1-134.1,go_nogo_deval,429,,<img class = center src='/static/experiments/go_nogo_deval/images/blue_circle.png'></img>,32,850,test,blue_circle,nogo2,-1,44,1,,,,,,,-1,-1,1400,0,ITI,poldrack-single-stim,340,500570,0.0-6.1-135.1,go_nogo_deval,429,,<div></div>,32,1400,test,,,,,,,,,,,,-1,-1,500,0,fixation,poldrack-single-stim,341,501072,0.0-6.1-136.1,go_nogo_deval,429,,<div class = centerbox><div class = fixation>+</div></div>,none,500,test,,,,,,,,,,,,406,32,850,0,stim,poldrack-single-stim,342,501924,0.0-6.1-137.1,go_nogo_deval,429,,<img class = center src='/static/experiments/go_nogo_deval/images/green_triangle.png'></img>,32,850,test,green_triangle,go2,32,45,1,,,,,,,-1,-1,1400,0,ITI,poldrack-single-stim,343,503326,0.0-6.1-138.1,go_nogo_deval,429,,<div></div>,32,1400,test,,,,,,,,,,,,-1,-1,500,0,fixation,poldrack-single-stim,344,503828,0.0-6.1-139.1,go_nogo_deval,429,,<div class = centerbox><div class = fixation>+</div></div>,none,500,test,,,,,,,,,,,,-1,-1,850,0,stim,poldrack-single-stim,345,504678,0.0-6.1-140.1,go_nogo_deval,429,,<img class = center src='/static/experiments/go_nogo_deval/images/red_pentagon.png'></img>,32,850,test,red_pentagon,nogo1,-1,46,1,,,,,,,-1,-1,1400,0,ITI,poldrack-single-stim,346,506080,0.0-6.1-141.1,go_nogo_deval,429,,<div></div>,32,1400,test,,,,,,,,,,,,-1,-1,500,0,fixation,poldrack-single-stim,347,506581,0.0-6.1-142.1,go_nogo_deval,429,,<div class = centerbox><div class = fixation>+</div></div>,none,500,test,,,,,,,,,,,,-1,-1,850,0,stim,poldrack-single-stim,348,507433,0.0-6.1-143.1,go_nogo_deval,429,,<img class = center src='/static/experiments/go_nogo_deval/images/red_pentagon.png'></img>,32,850,test,red_pentagon,nogo1,-1,47,1,,,,,,,-1,-1,1400,0,ITI,poldrack-single-stim,349,508835,0.0-6.1-144.1,go_nogo_deval,429,,<div></div>,32,1400,test,,,,,,,,,,,,7782,13,7782,0,practice-no-stop-feedback,poldrack-single-stim,350,516621,0.0-6.2-0.2,go_nogo_deval,429,,"<div class = centerbox><p class = block-text><br>Please take this time to read your feedback and to take a short break! Press enter to continue</p><p class = block-text><strong>Average reaction time:  433 ms. Accuracy: 96%</strong></p><p class = block-text>We have detected a number of trials that <strong>required no response</strong>, where a response was made.  Please <strong>ensure that you do not respond </strong>to shapes that require no response</p></div>",13,7782,,,,,,,,,,,,,-1,-1,500,0,fixation,poldrack-single-stim,351,517122,0.0-6.2-1.2,go_nogo_deval,429,,<div class = centerbox><div class = fixation>+</div></div>,none,500,test,,,,,,,,,,,,-1,-1,850,0,stim,poldrack-single-stim,352,517974,0.0-6.2-2.2,go_nogo_deval,429,,<img class = center src='/static/experiments/go_nogo_deval/images/purple_rhombus.png'></img>,32,850,test,purple_rhombus,go1,32,0,2,,,,,,,6,32,1400,0,ITI,poldrack-single-stim,353,519376,0.0-6.2-3.2,go_nogo_deval,429,,<div></div>,32,1400,test,,,,,,,,,,,,-1,-1,500,0,fixation,poldrack-single-stim,354,519878,0.0-6.2-4.2,go_nogo_deval,429,,<div class = centerbox><div class = fixation>+</div></div>,none,500,test,,,,,,,,,,,,-1,-1,850,0,stim,poldrack-single-stim,355,520729,0.0-6.2-5.2,go_nogo_deval,429,,<img class = center src='/static/experiments/go_nogo_deval/images/red_pentagon.png'></img>,32,850,test,red_pentagon,nogo1,-1,1,2,,,,,,,-1,-1,1400,0,ITI,poldrack-single-stim,356,522130,0.0-6.2-6.2,go_nogo_deval,429,,<div></div>,32,1400,test,,,,,,,,,,,,-1,-1,500,0,fixation,poldrack-single-stim,357,522632,0.0-6.2-7.2,go_nogo_deval,429,,<div class = centerbox><div class = fixation>+</div></div>,none,500,test,,,,,,,,,,,,423,32,850,0,stim,poldrack-single-stim,358,523484,0.0-6.2-8.2,go_nogo_deval,429,,<img class = center src='/static/experiments/go_nogo_deval/images/green_triangle.png'></img>,32,850,test,green_triangle,go2,32,2,2,,,,,,,-1,-1,1400,0,ITI,poldrack-single-stim,359,524885,0.0-6.2-9.2,go_nogo_deval,429,,<div></div>,32,1400,test,,,,,,,,,,,,-1,-1,500,0,fixation,poldrack-single-stim,360,525387,0.0-6.2-10.2,go_nogo_deval,429,,<div class = centerbox><div class = fixation>+</div></div>,none,500,test,,,,,,,,,,,,435,32,850,0,stim,poldrack-single-stim,361,526237,0.0-6.2-11.2,go_nogo_deval,429,,<img class = center src='/static/experiments/go_nogo_deval/images/purple_rhombus.png'></img>,32,850,test,purple_rhombus,go1,32,3,2,,,,,,,-1,-1,1400,0,ITI,poldrack-single-stim,362,527639,0.0-6.2-12.2,go_nogo_deval,429,,<div></div>,32,1400,test,,,,,,,,,,,,-1,-1,500,0,fixation,poldrack-single-stim,363,528141,0.0-6.2-13.2,go_nogo_deval,429,,<div class = centerbox><div class = fixation>+</div></div>,none,500,test,,,,,,,,,,,,-1,-1,850,0,stim,poldrack-single-stim,364,528993,0.0-6.2-14.2,go_nogo_deval,429,,<img class = center src='/static/experiments/go_nogo_deval/images/blue_circle.png'></img>,32,850,test,blue_circle,nogo2,-1,4,2,,,,,,,-1,-1,1400,0,ITI,poldrack-single-stim,365,530394,0.0-6.2-15.2,go_nogo_deval,429,,<div></div>,32,1400,test,,,,,,,,,,,,-1,-1,500,0,fixation,poldrack-single-stim,366,530895,0.0-6.2-16.2,go_nogo_deval,429,,<div class = centerbox><div class = fixation>+</div></div>,none,500,test,,,,,,,,,,,,372,32,850,0,stim,poldrack-single-stim,367,531747,0.0-6.2-17.2,go_nogo_deval,429,,<img class = center src='/static/experiments/go_nogo_deval/images/green_triangle.png'></img>,32,850,test,green_triangle,go2,32,5,2,,,,,,,-1,-1,1400,0,ITI,poldrack-single-stim,368,533149,0.0-6.2-18.2,go_nogo_deval,429,,<div></div>,32,1400,test,,,,,,,,,,,,-1,-1,500,0,fixation,poldrack-single-stim,369,533650,0.0-6.2-19.2,go_nogo_deval,429,,<div class = centerbox><div class = fixation>+</div></div>,none,500,test,,,,,,,,,,,,453,32,850,0,stim,poldrack-single-stim,370,534502,0.0-6.2-20.2,go_nogo_deval,429,,<img class = center src='/static/experiments/go_nogo_deval/images/green_triangle.png'></img>,32,850,test,green_triangle,go2,32,6,2,,,,,,,-1,-1,1400,0,ITI,poldrack-single-stim,371,535903,0.0-6.2-21.2,go_nogo_deval,429,,<div></div>,32,1400,test,,,,,,,,,,,,-1,-1,500,0,fixation,poldrack-single-stim,372,536405,0.0-6.2-22.2,go_nogo_deval,429,,<div class = centerbox><div class = fixation>+</div></div>,none,500,test,,,,,,,,,,,,-1,-1,850,0,stim,poldrack-single-stim,373,537257,0.0-6.2-23.2,go_nogo_deval,429,,<img class = center src='/static/experiments/go_nogo_deval/images/blue_circle.png'></img>,32,850,test,blue_circle,nogo2,-1,7,2,,,,,,,-1,-1,1400,0,ITI,poldrack-single-stim,374,538659,0.0-6.2-24.2,go_nogo_deval,429,,<div></div>,32,1400,test,,,,,,,,,,,,-1,-1,500,0,fixation,poldrack-single-stim,375,539161,0.0-6.2-25.2,go_nogo_deval,429,,<div class = centerbox><div class = fixation>+</div></div>,none,500,test,,,,,,,,,,,,432,32,850,0,stim,poldrack-single-stim,376,540012,0.0-6.2-26.2,go_nogo_deval,429,,<img class = center src='/static/experiments/go_nogo_deval/images/purple_rhombus.png'></img>,32,850,test,purple_rhombus,go1,32,8,2,,,,,,,-1,-1,1400,0,ITI,poldrack-single-stim,377,541414,0.0-6.2-27.2,go_nogo_deval,429,,<div></div>,32,1400,test,,,,,,,,,,,,-1,-1,500,0,fixation,poldrack-single-stim,378,541914,0.0-6.2-28.2,go_nogo_deval,429,,<div class = centerbox><div class = fixation>+</div></div>,none,500,test,,,,,,,,,,,,423,32,850,0,stim,poldrack-single-stim,379,542766,0.0-6.2-29.2,go_nogo_deval,429,,<img class = center src='/static/experiments/go_nogo_deval/images/green_triangle.png'></img>,32,850,test,green_triangle,go2,32,9,2,,,,,,,-1,-1,1400,0,ITI,poldrack-single-stim,380,544168,0.0-6.2-30.2,go_nogo_deval,429,,<div></div>,32,1400,test,,,,,,,,,,,,-1,-1,500,0,fixation,poldrack-single-stim,381,544670,0.0-6.2-31.2,go_nogo_deval,429,,<div class = centerbox><div class = fixation>+</div></div>,none,500,test,,,,,,,,,,,,435,32,850,0,stim,poldrack-single-stim,382,545521,0.0-6.2-32.2,go_nogo_deval,429,,<img class = center src='/static/experiments/go_nogo_deval/images/purple_rhombus.png'></img>,32,850,test,purple_rhombus,go1,32,10,2,,,,,,,-1,-1,1400,0,ITI,poldrack-single-stim,383,546922,0.0-6.2-33.2,go_nogo_deval,429,,<div></div>,32,1400,test,,,,,,,,,,,,-1,-1,500,0,fixation,poldrack-single-stim,384,547424,0.0-6.2-34.2,go_nogo_deval,429,,<div class = centerbox><div class = fixation>+</div></div>,none,500,test,,,,,,,,,,,,-1,-1,850,0,stim,poldrack-single-stim,385,548276,0.0-6.2-35.2,go_nogo_deval,429,,<img class = center src='/static/experiments/go_nogo_deval/images/blue_circle.png'></img>,32,850,test,blue_circle,nogo2,-1,11,2,,,,,,,-1,-1,1400,0,ITI,poldrack-single-stim,386,549678,0.0-6.2-36.2,go_nogo_deval,429,,<div></div>,32,1400,test,,,,,,,,,,,,-1,-1,500,0,fixation,poldrack-single-stim,387,550180,0.0-6.2-37.2,go_nogo_deval,429,,<div class = centerbox><div class = fixation>+</div></div>,none,500,test,,,,,,,,,,,,-1,-1,850,0,stim,poldrack-single-stim,388,551032,0.0-6.2-38.2,go_nogo_deval,429,,<img class = center src='/static/experiments/go_nogo_deval/images/red_pentagon.png'></img>,32,850,test,red_pentagon,nogo1,-1,12,2,,,,,,,-1,-1,1400,0,ITI,poldrack-single-stim,389,552434,0.0-6.2-39.2,go_nogo_deval,429,,<div></div>,32,1400,test,,,,,,,,,,,,-1,-1,500,0,fixation,poldrack-single-stim,390,552935,0.0-6.2-40.2,go_nogo_deval,429,,<div class = centerbox><div class = fixation>+</div></div>,none,500,test,,,,,,,,,,,,687,32,850,0,stim,poldrack-single-stim,391,553786,0.0-6.2-41.2,go_nogo_deval,429,,<img class = center src='/static/experiments/go_nogo_deval/images/purple_rhombus.png'></img>,32,850,test,purple_rhombus,go1,32,13,2,,,,,,,-1,-1,1400,0,ITI,poldrack-single-stim,392,555188,0.0-6.2-42.2,go_nogo_deval,429,,<div></div>,32,1400,test,,,,,,,,,,,,-1,-1,500,0,fixation,poldrack-single-stim,393,555690,0.0-6.2-43.2,go_nogo_deval,429,,<div class = centerbox><div class = fixation>+</div></div>,none,500,test,,,,,,,,,,,,439,32,850,0,stim,poldrack-single-stim,394,556543,0.0-6.2-44.2,go_nogo_deval,429,,<img class = center src='/static/experiments/go_nogo_deval/images/purple_rhombus.png'></img>,32,850,test,purple_rhombus,go1,32,14,2,,,,,,,-1,-1,1400,0,ITI,poldrack-single-stim,395,557945,0.0-6.2-45.2,go_nogo_deval,429,,<div></div>,32,1400,test,,,,,,,,,,,,-1,-1,500,0,fixation,poldrack-single-stim,396,558447,0.0-6.2-46.2,go_nogo_deval,429,,<div class = centerbox><div class = fixation>+</div></div>,none,500,test,,,,,,,,,,,,395,32,850,0,stim,poldrack-single-stim,397,559299,0.0-6.2-47.2,go_nogo_deval,429,,<img class = center src='/static/experiments/go_nogo_deval/images/green_triangle.png'></img>,32,850,test,green_triangle,go2,32,15,2,,,,,,,-1,-1,1400,0,ITI,poldrack-single-stim,398,560700,0.0-6.2-48.2,go_nogo_deval,429,,<div></div>,32,1400,test,,,,,,,,,,,,-1,-1,500,0,fixation,poldrack-single-stim,399,561202,0.0-6.2-49.2,go_nogo_deval,429,,<div class = centerbox><div class = fixation>+</div></div>,none,500,test,,,,,,,,,,,,-1,-1,850,0,stim,poldrack-single-stim,400,562053,0.0-6.2-50.2,go_nogo_deval,429,,<img class = center src='/static/experiments/go_nogo_deval/images/red_pentagon.png'></img>,32,850,test,red_pentagon,nogo1,-1,16,2,,,,,,,-1,-1,1400,0,ITI,poldrack-single-stim,401,563454,0.0-6.2-51.2,go_nogo_deval,429,,<div></div>,32,1400,test,,,,,,,,,,,,-1,-1,500,0,fixation,poldrack-single-stim,402,563956,0.0-6.2-52.2,go_nogo_deval,429,,<div class = centerbox><div class = fixation>+</div></div>,none,500,test,,,,,,,,,,,,489,32,850,0,stim,poldrack-single-stim,403,564808,0.0-6.2-53.2,go_nogo_deval,429,,<img class = center src='/static/experiments/go_nogo_deval/images/purple_rhombus.png'></img>,32,850,test,purple_rhombus,go1,32,17,2,,,,,,,-1,-1,1400,0,ITI,poldrack-single-stim,404,566209,0.0-6.2-54.2,go_nogo_deval,429,,<div></div>,32,1400,test,,,,,,,,,,,,-1,-1,500,0,fixation,poldrack-single-stim,405,566710,0.0-6.2-55.2,go_nogo_deval,429,,<div class = centerbox><div class = fixation>+</div></div>,none,500,test,,,,,,,,,,,,-1,-1,850,0,stim,poldrack-single-stim,406,567561,0.0-6.2-56.2,go_nogo_deval,429,,<img class = center src='/static/experiments/go_nogo_deval/images/blue_circle.png'></img>,32,850,test,blue_circle,nogo2,-1,18,2,,,,,,,-1,-1,1400,0,ITI,poldrack-single-stim,407,568962,0.0-6.2-57.2,go_nogo_deval,429,,<div></div>,32,1400,test,,,,,,,,,,,,-1,-1,500,0,fixation,poldrack-single-stim,408,569463,0.0-6.2-58.2,go_nogo_deval,429,,<div class = centerbox><div class = fixation>+</div></div>,none,500,test,,,,,,,,,,,,414,32,850,0,stim,poldrack-single-stim,409,570314,0.0-6.2-59.2,go_nogo_deval,429,,<img class = center src='/static/experiments/go_nogo_deval/images/purple_rhombus.png'></img>,32,850,test,purple_rhombus,go1,32,19,2,,,,,,,-1,-1,1400,0,ITI,poldrack-single-stim,410,571716,0.0-6.2-60.2,go_nogo_deval,429,,<div></div>,32,1400,test,,,,,,,,,,,,-1,-1,500,0,fixation,poldrack-single-stim,411,572218,0.0-6.2-61.2,go_nogo_deval,429,,<div class = centerbox><div class = fixation>+</div></div>,none,500,test,,,,,,,,,,,,-1,-1,850,0,stim,poldrack-single-stim,412,573069,0.0-6.2-62.2,go_nogo_deval,429,,<img class = center src='/static/experiments/go_nogo_deval/images/red_pentagon.png'></img>,32,850,test,red_pentagon,nogo1,-1,20,2,,,,,,,-1,-1,1400,0,ITI,poldrack-single-stim,413,574471,0.0-6.2-63.2,go_nogo_deval,429,,<div></div>,32,1400,test,,,,,,,,,,,,-1,-1,500,0,fixation,poldrack-single-stim,414,574972,0.0-6.2-64.2,go_nogo_deval,429,,<div class = centerbox><div class = fixation>+</div></div>,none,500,test,,,,,,,,,,,,373,32,850,0,stim,poldrack-single-stim,415,575824,0.0-6.2-65.2,go_nogo_deval,429,,<img class = center src='/static/experiments/go_nogo_deval/images/green_triangle.png'></img>,32,850,test,green_triangle,go2,32,21,2,,,,,,,-1,-1,1400,0,ITI,poldrack-single-stim,416,577226,0.0-6.2-66.2,go_nogo_deval,429,,<div></div>,32,1400,test,,,,,,,,,,,,-1,-1,500,0,fixation,poldrack-single-stim,417,577728,0.0-6.2-67.2,go_nogo_deval,429,,<div class = centerbox><div class = fixation>+</div></div>,none,500,test,,,,,,,,,,,,396,32,850,0,stim,poldrack-single-stim,418,578578,0.0-6.2-68.2,go_nogo_deval,429,,<img class = center src='/static/experiments/go_nogo_deval/images/green_triangle.png'></img>,32,850,test,green_triangle,go2,32,22,2,,,,,,,-1,-1,1400,0,ITI,poldrack-single-stim,419,579979,0.0-6.2-69.2,go_nogo_deval,429,,<div></div>,32,1400,test,,,,,,,,,,,,-1,-1,500,0,fixation,poldrack-single-stim,420,580481,0.0-6.2-70.2,go_nogo_deval,429,,<div class = centerbox><div class = fixation>+</div></div>,none,500,test,,,,,,,,,,,,-1,-1,850,0,stim,poldrack-single-stim,421,581333,0.0-6.2-71.2,go_nogo_deval,429,,<img class = center src='/static/experiments/go_nogo_deval/images/blue_circle.png'></img>,32,850,test,blue_circle,nogo2,-1,23,2,,,,,,,-1,-1,1400,0,ITI,poldrack-single-stim,422,582735,0.0-6.2-72.2,go_nogo_deval,429,,<div></div>,32,1400,test,,,,,,,,,,,,-1,-1,500,0,fixation,poldrack-single-stim,423,583236,0.0-6.2-73.2,go_nogo_deval,429,,<div class = centerbox><div class = fixation>+</div></div>,none,500,test,,,,,,,,,,,,321,32,850,0,stim,poldrack-single-stim,424,584087,0.0-6.2-74.2,go_nogo_deval,429,,<img class = center src='/static/experiments/go_nogo_deval/images/green_triangle.png'></img>,32,850,test,green_triangle,go2,32,24,2,,,,,,,-1,-1,1400,0,ITI,poldrack-single-stim,425,585489,0.0-6.2-75.2,go_nogo_deval,429,,<div></div>,32,1400,test,,,,,,,,,,,,-1,-1,500,0,fixation,poldrack-single-stim,426,585991,0.0-6.2-76.2,go_nogo_deval,429,,<div class = centerbox><div class = fixation>+</div></div>,none,500,test,,,,,,,,,,,,391,32,850,0,stim,poldrack-single-stim,427,586843,0.0-6.2-77.2,go_nogo_deval,429,,<img class = center src='/static/experiments/go_nogo_deval/images/green_triangle.png'></img>,32,850,test,green_triangle,go2,32,25,2,,,,,,,-1,-1,1400,0,ITI,poldrack-single-stim,428,588244,0.0-6.2-78.2,go_nogo_deval,429,,<div></div>,32,1400,test,,,,,,,,,,,,-1,-1,500,0,fixation,poldrack-single-stim,429,588746,0.0-6.2-79.2,go_nogo_deval,429,,<div class = centerbox><div class = fixation>+</div></div>,none,500,test,,,,,,,,,,,,-1,-1,850,0,stim,poldrack-single-stim,430,589597,0.0-6.2-80.2,go_nogo_deval,429,,<img class = center src='/static/experiments/go_nogo_deval/images/blue_circle.png'></img>,32,850,test,blue_circle,nogo2,-1,26,2,,,,,,,-1,-1,1400,0,ITI,poldrack-single-stim,431,590998,0.0-6.2-81.2,go_nogo_deval,429,,<div></div>,32,1400,test,,,,,,,,,,,,-1,-1,500,0,fixation,poldrack-single-stim,432,591500,0.0-6.2-82.2,go_nogo_deval,429,,<div class = centerbox><div class = fixation>+</div></div>,none,500,test,,,,,,,,,,,,451,32,850,0,stim,poldrack-single-stim,433,592352,0.0-6.2-83.2,go_nogo_deval,429,,<img class = center src='/static/experiments/go_nogo_deval/images/green_triangle.png'></img>,32,850,test,green_triangle,go2,32,27,2,,,,,,,-1,-1,1400,0,ITI,poldrack-single-stim,434,593753,0.0-6.2-84.2,go_nogo_deval,429,,<div></div>,32,1400,test,,,,,,,,,,,,-1,-1,500,0,fixation,poldrack-single-stim,435,594255,0.0-6.2-85.2,go_nogo_deval,429,,<div class = centerbox><div class = fixation>+</div></div>,none,500,test,,,,,,,,,,,,-1,-1,850,0,stim,poldrack-single-stim,436,595106,0.0-6.2-86.2,go_nogo_deval,429,,<img class = center src='/static/experiments/go_nogo_deval/images/red_pentagon.png'></img>,32,850,test,red_pentagon,nogo1,-1,28,2,,,,,,,-1,-1,1400,0,ITI,poldrack-single-stim,437,596508,0.0-6.2-87.2,go_nogo_deval,429,,<div></div>,32,1400,test,,,,,,,,,,,,-1,-1,500,0,fixation,poldrack-single-stim,438,597009,0.0-6.2-88.2,go_nogo_deval,429,,<div class = centerbox><div class = fixation>+</div></div>,none,500,test,,,,,,,,,,,,432,32,850,0,stim,poldrack-single-stim,439,597861,0.0-6.2-89.2,go_nogo_deval,429,,<img class = center src='/static/experiments/go_nogo_deval/images/green_triangle.png'></img>,32,850,test,green_triangle,go2,32,29,2,,,,,,,-1,-1,1400,0,ITI,poldrack-single-stim,440,599263,0.0-6.2-90.2,go_nogo_deval,429,,<div></div>,32,1400,test,,,,,,,,,,,,-1,-1,500,0,fixation,poldrack-single-stim,441,599764,0.0-6.2-91.2,go_nogo_deval,429,,<div class = centerbox><div class = fixation>+</div></div>,none,500,test,,,,,,,,,,,,398,32,850,0,stim,poldrack-single-stim,442,600617,0.0-6.2-92.2,go_nogo_deval,429,,<img class = center src='/static/experiments/go_nogo_deval/images/green_triangle.png'></img>,32,850,test,green_triangle,go2,32,30,2,,,,,,,-1,-1,1400,0,ITI,poldrack-single-stim,443,602018,0.0-6.2-93.2,go_nogo_deval,429,,<div></div>,32,1400,test,,,,,,,,,,,,-1,-1,500,0,fixation,poldrack-single-stim,444,602520,0.0-6.2-94.2,go_nogo_deval,429,,<div class = centerbox><div class = fixation>+</div></div>,none,500,test,,,,,,,,,,,,489,32,850,0,stim,poldrack-single-stim,445,603371,0.0-6.2-95.2,go_nogo_deval,429,,<img class = center src='/static/experiments/go_nogo_deval/images/purple_rhombus.png'></img>,32,850,test,purple_rhombus,go1,32,31,2,,,,,,,-1,-1,1400,0,ITI,poldrack-single-stim,446,604773,0.0-6.2-96.2,go_nogo_deval,429,,<div></div>,32,1400,test,,,,,,,,,,,,-1,-1,500,0,fixation,poldrack-single-stim,447,605273,0.0-6.2-97.2,go_nogo_deval,429,,<div class = centerbox><div class = fixation>+</div></div>,none,500,test,,,,,,,,,,,,447,32,850,0,stim,poldrack-single-stim,448,606125,0.0-6.2-98.2,go_nogo_deval,429,,<img class = center src='/static/experiments/go_nogo_deval/images/purple_rhombus.png'></img>,32,850,test,purple_rhombus,go1,32,32,2,,,,,,,-1,-1,1400,0,ITI,poldrack-single-stim,449,607527,0.0-6.2-99.2,go_nogo_deval,429,,<div></div>,32,1400,test,,,,,,,,,,,,-1,-1,500,0,fixation,poldrack-single-stim,450,608028,0.0-6.2-100.2,go_nogo_deval,429,,<div class = centerbox><div class = fixation>+</div></div>,none,500,test,,,,,,,,,,,,416,32,850,0,stim,poldrack-single-stim,451,608879,0.0-6.2-101.2,go_nogo_deval,429,,<img class = center src='/static/experiments/go_nogo_deval/images/purple_rhombus.png'></img>,32,850,test,purple_rhombus,go1,32,33,2,,,,,,,-1,-1,1400,0,ITI,poldrack-single-stim,452,610281,0.0-6.2-102.2,go_nogo_deval,429,,<div></div>,32,1400,test,,,,,,,,,,,,-1,-1,500,0,fixation,poldrack-single-stim,453,610783,0.0-6.2-103.2,go_nogo_deval,429,,<div class = centerbox><div class = fixation>+</div></div>,none,500,test,,,,,,,,,,,,372,32,850,0,stim,poldrack-single-stim,454,611635,0.0-6.2-104.2,go_nogo_deval,429,,<img class = center src='/static/experiments/go_nogo_deval/images/purple_rhombus.png'></img>,32,850,test,purple_rhombus,go1,32,34,2,,,,,,,-1,-1,1400,0,ITI,poldrack-single-stim,455,613037,0.0-6.2-105.2,go_nogo_deval,429,,<div></div>,32,1400,test,,,,,,,,,,,,-1,-1,500,0,fixation,poldrack-single-stim,456,613537,0.0-6.2-106.2,go_nogo_deval,429,,<div class = centerbox><div class = fixation>+</div></div>,none,500,test,,,,,,,,,,,,429,32,850,0,stim,poldrack-single-stim,457,614389,0.0-6.2-107.2,go_nogo_deval,429,,<img class = center src='/static/experiments/go_nogo_deval/images/purple_rhombus.png'></img>,32,850,test,purple_rhombus,go1,32,35,2,,,,,,,-1,-1,1400,0,ITI,poldrack-single-stim,458,615790,0.0-6.2-108.2,go_nogo_deval,429,,<div></div>,32,1400,test,,,,,,,,,,,,-1,-1,500,0,fixation,poldrack-single-stim,459,616292,0.0-6.2-109.2,go_nogo_deval,429,,<div class = centerbox><div class = fixation>+</div></div>,none,500,test,,,,,,,,,,,,-1,-1,850,0,stim,poldrack-single-stim,460,617144,0.0-6.2-110.2,go_nogo_deval,429,,<img class = center src='/static/experiments/go_nogo_deval/images/blue_circle.png'></img>,32,850,test,blue_circle,nogo2,-1,36,2,,,,,,,-1,-1,1400,0,ITI,poldrack-single-stim,461,618545,0.0-6.2-111.2,go_nogo_deval,429,,<div></div>,32,1400,test,,,,,,,,,,,,-1,-1,500,0,fixation,poldrack-single-stim,462,619047,0.0-6.2-112.2,go_nogo_deval,429,,<div class = centerbox><div class = fixation>+</div></div>,none,500,test,,,,,,,,,,,,-1,-1,850,0,stim,poldrack-single-stim,463,619899,0.0-6.2-113.2,go_nogo_deval,429,,<img class = center src='/static/experiments/go_nogo_deval/images/red_pentagon.png'></img>,32,850,test,red_pentagon,nogo1,-1,37,2,,,,,,,-1,-1,1400,0,ITI,poldrack-single-stim,464,621301,0.0-6.2-114.2,go_nogo_deval,429,,<div></div>,32,1400,test,,,,,,,,,,,,-1,-1,500,0,fixation,poldrack-single-stim,465,621801,0.0-6.2-115.2,go_nogo_deval,429,,<div class = centerbox><div class = fixation>+</div></div>,none,500,test,,,,,,,,,,,,-1,-1,850,0,stim,poldrack-single-stim,466,622653,0.0-6.2-116.2,go_nogo_deval,429,,<img class = center src='/static/experiments/go_nogo_deval/images/red_pentagon.png'></img>,32,850,test,red_pentagon,nogo1,-1,38,2,,,,,,,-1,-1,1400,0,ITI,poldrack-single-stim,467,624056,0.0-6.2-117.2,go_nogo_deval,429,,<div></div>,32,1400,test,,,,,,,,,,,,-1,-1,500,0,fixation,poldrack-single-stim,468,624558,0.0-6.2-118.2,go_nogo_deval,429,,<div class = centerbox><div class = fixation>+</div></div>,none,500,test,,,,,,,,,,,,491,32,850,0,stim,poldrack-single-stim,469,625410,0.0-6.2-119.2,go_nogo_deval,429,,<img class = center src='/static/experiments/go_nogo_deval/images/purple_rhombus.png'></img>,32,850,test,purple_rhombus,go1,32,39,2,,,,,,,-1,-1,1400,0,ITI,poldrack-single-stim,470,626812,0.0-6.2-120.2,go_nogo_deval,429,,<div></div>,32,1400,test,,,,,,,,,,,,-1,-1,500,0,fixation,poldrack-single-stim,471,627314,0.0-6.2-121.2,go_nogo_deval,429,,<div class = centerbox><div class = fixation>+</div></div>,none,500,test,,,,,,,,,,,,367,32,850,0,stim,poldrack-single-stim,472,628165,0.0-6.2-122.2,go_nogo_deval,429,,<img class = center src='/static/experiments/go_nogo_deval/images/purple_rhombus.png'></img>,32,850,test,purple_rhombus,go1,32,40,2,,,,,,,-1,-1,1400,0,ITI,poldrack-single-stim,473,629567,0.0-6.2-123.2,go_nogo_deval,429,,<div></div>,32,1400,test,,,,,,,,,,,,-1,-1,500,0,fixation,poldrack-single-stim,474,630068,0.0-6.2-124.2,go_nogo_deval,429,,<div class = centerbox><div class = fixation>+</div></div>,none,500,test,,,,,,,,,,,,514,32,850,0,stim,poldrack-single-stim,475,630920,0.0-6.2-125.2,go_nogo_deval,429,,<img class = center src='/static/experiments/go_nogo_deval/images/green_triangle.png'></img>,32,850,test,green_triangle,go2,32,41,2,,,,,,,-1,-1,1400,0,ITI,poldrack-single-stim,476,632321,0.0-6.2-126.2,go_nogo_deval,429,,<div></div>,32,1400,test,,,,,,,,,,,,-1,-1,500,0,fixation,poldrack-single-stim,477,632823,0.0-6.2-127.2,go_nogo_deval,429,,<div class = centerbox><div class = fixation>+</div></div>,none,500,test,,,,,,,,,,,,448,32,850,0,stim,poldrack-single-stim,478,633675,0.0-6.2-128.2,go_nogo_deval,429,,<img class = center src='/static/experiments/go_nogo_deval/images/purple_rhombus.png'></img>,32,850,test,purple_rhombus,go1,32,42,2,,,,,,,-1,-1,1400,0,ITI,poldrack-single-stim,479,635076,0.0-6.2-129.2,go_nogo_deval,429,,<div></div>,32,1400,test,,,,,,,,,,,,-1,-1,500,0,fixation,poldrack-single-stim,480,635578,0.0-6.2-130.2,go_nogo_deval,429,,<div class = centerbox><div class = fixation>+</div></div>,none,500,test,,,,,,,,,,,,383,32,850,0,stim,poldrack-single-stim,481,636430,0.0-6.2-131.2,go_nogo_deval,429,,<img class = center src='/static/experiments/go_nogo_deval/images/green_triangle.png'></img>,32,850,test,green_triangle,go2,32,43,2,,,,,,,-1,-1,1400,0,ITI,poldrack-single-stim,482,637832,0.0-6.2-132.2,go_nogo_deval,429,,<div></div>,32,1400,test,,,,,,,,,,,,-1,-1,500,0,fixation,poldrack-single-stim,483,638332,0.0-6.2-133.2,go_nogo_deval,429,,<div class = centerbox><div class = fixation>+</div></div>,none,500,test,,,,,,,,,,,,-1,-1,850,0,stim,poldrack-single-stim,484,639184,0.0-6.2-134.2,go_nogo_deval,429,,<img class = center src='/static/experiments/go_nogo_deval/images/red_pentagon.png'></img>,32,850,test,red_pentagon,nogo1,-1,44,2,,,,,,,-1,-1,1400,0,ITI,poldrack-single-stim,485,640585,0.0-6.2-135.2,go_nogo_deval,429,,<div></div>,32,1400,test,,,,,,,,,,,,-1,-1,500,0,fixation,poldrack-single-stim,486,641087,0.0-6.2-136.2,go_nogo_deval,429,,<div class = centerbox><div class = fixation>+</div></div>,none,500,test,,,,,,,,,,,,409,32,850,0,stim,poldrack-single-stim,487,641939,0.0-6.2-137.2,go_nogo_deval,429,,<img class = center src='/static/experiments/go_nogo_deval/images/green_triangle.png'></img>,32,850,test,green_triangle,go2,32,45,2,,,,,,,-1,-1,1400,0,ITI,poldrack-single-stim,488,643340,0.0-6.2-138.2,go_nogo_deval,429,,<div></div>,32,1400,test,,,,,,,,,,,,-1,-1,500,0,fixation,poldrack-single-stim,489,643841,0.0-6.2-139.2,go_nogo_deval,429,,<div class = centerbox><div class = fixation>+</div></div>,none,500,test,,,,,,,,,,,,-1,-1,850,0,stim,poldrack-single-stim,490,644693,0.0-6.2-140.2,go_nogo_deval,429,,<img class = center src='/static/experiments/go_nogo_deval/images/blue_circle.png'></img>,32,850,test,blue_circle,nogo2,-1,46,2,,,,,,,-1,-1,1400,0,ITI,poldrack-single-stim,491,646095,0.0-6.2-141.2,go_nogo_deval,429,,<div></div>,32,1400,test,,,,,,,,,,,,-1,-1,500,0,fixation,poldrack-single-stim,492,646596,0.0-6.2-142.2,go_nogo_deval,429,,<div class = centerbox><div class = fixation>+</div></div>,none,500,test,,,,,,,,,,,,435,32,850,0,stim,poldrack-single-stim,493,647447,0.0-6.2-143.2,go_nogo_deval,429,,<img class = center src='/static/experiments/go_nogo_deval/images/green_triangle.png'></img>,32,850,test,green_triangle,go2,32,47,2,,,,,,,-1,-1,1400,0,ITI,poldrack-single-stim,494,648849,0.0-6.2-144.2,go_nogo_deval,429,,<div></div>,32,1400,test,,,,,,,,,,,,6615,13,6615,0,practice-no-stop-feedback,poldrack-single-stim,495,655469,0.0-6.3-0.3,go_nogo_deval,429,,<div class = centerbox><p class = block-text><br>Please take this time to read your feedback and to take a short break! Press enter to continue</p><p class = block-text><strong>Average reaction time:  431 ms. Accuracy: 98%</strong></p></div>,13,6615,,,,,,,,,,,,,-1,-1,500,0,fixation,poldrack-single-stim,496,655970,0.0-6.3-1.3,go_nogo_deval,429,,<div class = centerbox><div class = fixation>+</div></div>,none,500,test,,,,,,,,,,,,646,32,850,0,stim,poldrack-single-stim,497,656821,0.0-6.3-2.3,go_nogo_deval,429,,<img class = center src='/static/experiments/go_nogo_deval/images/green_triangle.png'></img>,32,850,test,green_triangle,go2,32,0,3,,,,,,,-1,-1,1400,0,ITI,poldrack-single-stim,498,658222,0.0-6.3-3.3,go_nogo_deval,429,,<div></div>,32,1400,test,,,,,,,,,,,,-1,-1,500,0,fixation,poldrack-single-stim,499,658723,0.0-6.3-4.3,go_nogo_deval,429,,<div class = centerbox><div class = fixation>+</div></div>,none,500,test,,,,,,,,,,,,402,32,850,0,stim,poldrack-single-stim,500,659575,0.0-6.3-5.3,go_nogo_deval,429,,<img class = center src='/static/experiments/go_nogo_deval/images/purple_rhombus.png'></img>,32,850,test,purple_rhombus,go1,32,1,3,,,,,,,-1,-1,1400,0,ITI,poldrack-single-stim,501,660977,0.0-6.3-6.3,go_nogo_deval,429,,<div></div>,32,1400,test,,,,,,,,,,,,-1,-1,500,0,fixation,poldrack-single-stim,502,661478,0.0-6.3-7.3,go_nogo_deval,429,,<div class = centerbox><div class = fixation>+</div></div>,none,500,test,,,,,,,,,,,,391,32,850,0,stim,poldrack-single-stim,503,662329,0.0-6.3-8.3,go_nogo_deval,429,,<img class = center src='/static/experiments/go_nogo_deval/images/purple_rhombus.png'></img>,32,850,test,purple_rhombus,go1,32,2,3,,,,,,,-1,-1,1400,0,ITI,poldrack-single-stim,504,663731,0.0-6.3-9.3,go_nogo_deval,429,,<div></div>,32,1400,test,,,,,,,,,,,,-1,-1,500,0,fixation,poldrack-single-stim,505,664233,0.0-6.3-10.3,go_nogo_deval,429,,<div class = centerbox><div class = fixation>+</div></div>,none,500,test,,,,,,,,,,,,450,32,850,0,stim,poldrack-single-stim,506,665085,0.0-6.3-11.3,go_nogo_deval,429,,<img class = center src='/static/experiments/go_nogo_deval/images/green_triangle.png'></img>,32,850,test,green_triangle,go2,32,3,3,,,,,,,-1,-1,1400,0,ITI,poldrack-single-stim,507,666487,0.0-6.3-12.3,go_nogo_deval,429,,<div></div>,32,1400,test,,,,,,,,,,,,-1,-1,500,0,fixation,poldrack-single-stim,508,666988,0.0-6.3-13.3,go_nogo_deval,429,,<div class = centerbox><div class = fixation>+</div></div>,none,500,test,,,,,,,,,,,,326,32,850,0,stim,poldrack-single-stim,509,667840,0.0-6.3-14.3,go_nogo_deval,429,,<img class = center src='/static/experiments/go_nogo_deval/images/green_triangle.png'></img>,32,850,test,green_triangle,go2,32,4,3,,,,,,,-1,-1,1400,0,ITI,poldrack-single-stim,510,669242,0.0-6.3-15.3,go_nogo_deval,429,,<div></div>,32,1400,test,,,,,,,,,,,,-1,-1,500,0,fixation,poldrack-single-stim,511,669743,0.0-6.3-16.3,go_nogo_deval,429,,<div class = centerbox><div class = fixation>+</div></div>,none,500,test,,,,,,,,,,,,361,32,850,0,stim,poldrack-single-stim,512,670595,0.0-6.3-17.3,go_nogo_deval,429,,<img class = center src='/static/experiments/go_nogo_deval/images/green_triangle.png'></img>,32,850,test,green_triangle,go2,32,5,3,,,,,,,-1,-1,1400,0,ITI,poldrack-single-stim,513,671997,0.0-6.3-18.3,go_nogo_deval,429,,<div></div>,32,1400,test,,,,,,,,,,,,-1,-1,500,0,fixation,poldrack-single-stim,514,672499,0.0-6.3-19.3,go_nogo_deval,429,,<div class = centerbox><div class = fixation>+</div></div>,none,500,test,,,,,,,,,,,,385,32,850,0,stim,poldrack-single-stim,515,673351,0.0-6.3-20.3,go_nogo_deval,429,,<img class = center src='/static/experiments/go_nogo_deval/images/purple_rhombus.png'></img>,32,850,test,purple_rhombus,go1,32,6,3,,,,,,,-1,-1,1400,0,ITI,poldrack-single-stim,516,674753,0.0-6.3-21.3,go_nogo_deval,429,,<div></div>,32,1400,test,,,,,,,,,,,,-1,-1,500,0,fixation,poldrack-single-stim,517,675255,0.0-6.3-22.3,go_nogo_deval,429,,<div class = centerbox><div class = fixation>+</div></div>,none,500,test,,,,,,,,,,,,419,32,850,0,stim,poldrack-single-stim,518,676106,0.0-6.3-23.3,go_nogo_deval,429,,<img class = center src='/static/experiments/go_nogo_deval/images/green_triangle.png'></img>,32,850,test,green_triangle,go2,32,7,3,,,,,,,-1,-1,1400,0,ITI,poldrack-single-stim,519,677508,0.0-6.3-24.3,go_nogo_deval,429,,<div></div>,32,1400,test,,,,,,,,,,,,-1,-1,500,0,fixation,poldrack-single-stim,520,678009,0.0-6.3-25.3,go_nogo_deval,429,,<div class = centerbox><div class = fixation>+</div></div>,none,500,test,,,,,,,,,,,,-1,-1,850,0,stim,poldrack-single-stim,521,678861,0.0-6.3-26.3,go_nogo_deval,429,,<img class = center src='/static/experiments/go_nogo_deval/images/red_pentagon.png'></img>,32,850,test,red_pentagon,nogo1,-1,8,3,,,,,,,-1,-1,1400,0,ITI,poldrack-single-stim,522,680263,0.0-6.3-27.3,go_nogo_deval,429,,<div></div>,32,1400,test,,,,,,,,,,,,-1,-1,500,0,fixation,poldrack-single-stim,523,680764,0.0-6.3-28.3,go_nogo_deval,429,,<div class = centerbox><div class = fixation>+</div></div>,none,500,test,,,,,,,,,,,,377,32,850,0,stim,poldrack-single-stim,524,681616,0.0-6.3-29.3,go_nogo_deval,429,,<img class = center src='/static/experiments/go_nogo_deval/images/purple_rhombus.png'></img>,32,850,test,purple_rhombus,go1,32,9,3,,,,,,,-1,-1,1400,0,ITI,poldrack-single-stim,525,683017,0.0-6.3-30.3,go_nogo_deval,429,,<div></div>,32,1400,test,,,,,,,,,,,,-1,-1,500,0,fixation,poldrack-single-stim,526,683519,0.0-6.3-31.3,go_nogo_deval,429,,<div class = centerbox><div class = fixation>+</div></div>,none,500,test,,,,,,,,,,,,457,32,850,0,stim,poldrack-single-stim,527,684370,0.0-6.3-32.3,go_nogo_deval,429,,<img class = center src='/static/experiments/go_nogo_deval/images/green_triangle.png'></img>,32,850,test,green_triangle,go2,32,10,3,,,,,,,-1,-1,1400,0,ITI,poldrack-single-stim,528,685772,0.0-6.3-33.3,go_nogo_deval,429,,<div></div>,32,1400,test,,,,,,,,,,,,-1,-1,500,0,fixation,poldrack-single-stim,529,686273,0.0-6.3-34.3,go_nogo_deval,429,,<div class = centerbox><div class = fixation>+</div></div>,none,500,test,,,,,,,,,,,,-1,-1,850,0,stim,poldrack-single-stim,530,687125,0.0-6.3-35.3,go_nogo_deval,429,,<img class = center src='/static/experiments/go_nogo_deval/images/blue_circle.png'></img>,32,850,test,blue_circle,nogo2,-1,11,3,,,,,,,-1,-1,1400,0,ITI,poldrack-single-stim,531,688526,0.0-6.3-36.3,go_nogo_deval,429,,<div></div>,32,1400,test,,,,,,,,,,,,-1,-1,500,0,fixation,poldrack-single-stim,532,689028,0.0-6.3-37.3,go_nogo_deval,429,,<div class = centerbox><div class = fixation>+</div></div>,none,500,test,,,,,,,,,,,,371,32,850,0,stim,poldrack-single-stim,533,689879,0.0-6.3-38.3,go_nogo_deval,429,,<img class = center src='/static/experiments/go_nogo_deval/images/green_triangle.png'></img>,32,850,test,green_triangle,go2,32,12,3,,,,,,,-1,-1,1400,0,ITI,poldrack-single-stim,534,691280,0.0-6.3-39.3,go_nogo_deval,429,,<div></div>,32,1400,test,,,,,,,,,,,,-1,-1,500,0,fixation,poldrack-single-stim,535,691782,0.0-6.3-40.3,go_nogo_deval,429,,<div class = centerbox><div class = fixation>+</div></div>,none,500,test,,,,,,,,,,,,395,32,850,0,stim,poldrack-single-stim,536,692634,0.0-6.3-41.3,go_nogo_deval,429,,<img class = center src='/static/experiments/go_nogo_deval/images/purple_rhombus.png'></img>,32,850,test,purple_rhombus,go1,32,13,3,,,,,,,-1,-1,1400,0,ITI,poldrack-single-stim,537,694035,0.0-6.3-42.3,go_nogo_deval,429,,<div></div>,32,1400,test,,,,,,,,,,,,-1,-1,500,0,fixation,poldrack-single-stim,538,694537,0.0-6.3-43.3,go_nogo_deval,429,,<div class = centerbox><div class = fixation>+</div></div>,none,500,test,,,,,,,,,,,,285,32,850,0,stim,poldrack-single-stim,539,695389,0.0-6.3-44.3,go_nogo_deval,429,,<img class = center src='/static/experiments/go_nogo_deval/images/green_triangle.png'></img>,32,850,test,green_triangle,go2,32,14,3,,,,,,,-1,-1,1400,0,ITI,poldrack-single-stim,540,696790,0.0-6.3-45.3,go_nogo_deval,429,,<div></div>,32,1400,test,,,,,,,,,,,,-1,-1,500,0,fixation,poldrack-single-stim,541,697291,0.0-6.3-46.3,go_nogo_deval,429,,<div class = centerbox><div class = fixation>+</div></div>,none,500,test,,,,,,,,,,,,263,32,850,0,stim,poldrack-single-stim,542,698143,0.0-6.3-47.3,go_nogo_deval,429,,<img class = center src='/static/experiments/go_nogo_deval/images/green_triangle.png'></img>,32,850,test,green_triangle,go2,32,15,3,,,,,,,-1,-1,1400,0,ITI,poldrack-single-stim,543,699545,0.0-6.3-48.3,go_nogo_deval,429,,<div></div>,32,1400,test,,,,,,,,,,,,-1,-1,500,0,fixation,poldrack-single-stim,544,700046,0.0-6.3-49.3,go_nogo_deval,429,,<div class = centerbox><div class = fixation>+</div></div>,none,500,test,,,,,,,,,,,,299,32,850,0,stim,poldrack-single-stim,545,700898,0.0-6.3-50.3,go_nogo_deval,429,,<img class = center src='/static/experiments/go_nogo_deval/images/green_triangle.png'></img>,32,850,test,green_triangle,go2,32,16,3,,,,,,,-1,-1,1400,0,ITI,poldrack-single-stim,546,702300,0.0-6.3-51.3,go_nogo_deval,429,,<div></div>,32,1400,test,,,,,,,,,,,,-1,-1,500,0,fixation,poldrack-single-stim,547,702801,0.0-6.3-52.3,go_nogo_deval,429,,<div class = centerbox><div class = fixation>+</div></div>,none,500,test,,,,,,,,,,,,289,32,850,0,stim,poldrack-single-stim,548,703653,0.0-6.3-53.3,go_nogo_deval,429,,<img class = center src='/static/experiments/go_nogo_deval/images/green_triangle.png'></img>,32,850,test,green_triangle,go2,32,17,3,,,,,,,-1,-1,1400,0,ITI,poldrack-single-stim,549,705055,0.0-6.3-54.3,go_nogo_deval,429,,<div></div>,32,1400,test,,,,,,,,,,,,-1,-1,500,0,fixation,poldrack-single-stim,550,705557,0.0-6.3-55.3,go_nogo_deval,429,,<div class = centerbox><div class = fixation>+</div></div>,none,500,test,,,,,,,,,,,,289,32,850,0,stim,poldrack-single-stim,551,706408,0.0-6.3-56.3,go_nogo_deval,429,,<img class = center src='/static/experiments/go_nogo_deval/images/purple_rhombus.png'></img>,32,850,test,purple_rhombus,go1,32,18,3,,,,,,,-1,-1,1400,0,ITI,poldrack-single-stim,552,707809,0.0-6.3-57.3,go_nogo_deval,429,,<div></div>,32,1400,test,,,,,,,,,,,,-1,-1,500,0,fixation,poldrack-single-stim,553,708311,0.0-6.3-58.3,go_nogo_deval,429,,<div class = centerbox><div class = fixation>+</div></div>,none,500,test,,,,,,,,,,,,438,32,850,0,stim,poldrack-single-stim,554,709162,0.0-6.3-59.3,go_nogo_deval,429,,<img class = center src='/static/experiments/go_nogo_deval/images/green_triangle.png'></img>,32,850,test,green_triangle,go2,32,19,3,,,,,,,-1,-1,1400,0,ITI,poldrack-single-stim,555,710564,0.0-6.3-60.3,go_nogo_deval,429,,<div></div>,32,1400,test,,,,,,,,,,,,-1,-1,500,0,fixation,poldrack-single-stim,556,711064,0.0-6.3-61.3,go_nogo_deval,429,,<div class = centerbox><div class = fixation>+</div></div>,none,500,test,,,,,,,,,,,,-1,-1,850,0,stim,poldrack-single-stim,557,711916,0.0-6.3-62.3,go_nogo_deval,429,,<img class = center src='/static/experiments/go_nogo_deval/images/blue_circle.png'></img>,32,850,test,blue_circle,nogo2,-1,20,3,,,,,,,-1,-1,1400,0,ITI,poldrack-single-stim,558,713318,0.0-6.3-63.3,go_nogo_deval,429,,<div></div>,32,1400,test,,,,,,,,,,,,-1,-1,500,0,fixation,poldrack-single-stim,559,713819,0.0-6.3-64.3,go_nogo_deval,429,,<div class = centerbox><div class = fixation>+</div></div>,none,500,test,,,,,,,,,,,,-1,-1,850,0,stim,poldrack-single-stim,560,714670,0.0-6.3-65.3,go_nogo_deval,429,,<img class = center src='/static/experiments/go_nogo_deval/images/blue_circle.png'></img>,32,850,test,blue_circle,nogo2,-1,21,3,,,,,,,-1,-1,1400,0,ITI,poldrack-single-stim,561,716072,0.0-6.3-66.3,go_nogo_deval,429,,<div></div>,32,1400,test,,,,,,,,,,,,-1,-1,500,0,fixation,poldrack-single-stim,562,716574,0.0-6.3-67.3,go_nogo_deval,429,,<div class = centerbox><div class = fixation>+</div></div>,none,500,test,,,,,,,,,,,,422,32,850,0,stim,poldrack-single-stim,563,717425,0.0-6.3-68.3,go_nogo_deval,429,,<img class = center src='/static/experiments/go_nogo_deval/images/green_triangle.png'></img>,32,850,test,green_triangle,go2,32,22,3,,,,,,,-1,-1,1400,0,ITI,poldrack-single-stim,564,718827,0.0-6.3-69.3,go_nogo_deval,429,,<div></div>,32,1400,test,,,,,,,,,,,,-1,-1,500,0,fixation,poldrack-single-stim,565,719328,0.0-6.3-70.3,go_nogo_deval,429,,<div class = centerbox><div class = fixation>+</div></div>,none,500,test,,,,,,,,,,,,400,32,850,0,stim,poldrack-single-stim,566,720179,0.0-6.3-71.3,go_nogo_deval,429,,<img class = center src='/static/experiments/go_nogo_deval/images/blue_circle.png'></img>,32,850,test,blue_circle,nogo2,-1,23,3,,,,,,,-1,-1,1400,0,ITI,poldrack-single-stim,567,721581,0.0-6.3-72.3,go_nogo_deval,429,,<div></div>,32,1400,test,,,,,,,,,,,,-1,-1,500,0,fixation,poldrack-single-stim,568,722083,0.0-6.3-73.3,go_nogo_deval,429,,<div class = centerbox><div class = fixation>+</div></div>,none,500,test,,,,,,,,,,,,-1,-1,850,0,stim,poldrack-single-stim,569,722935,0.0-6.3-74.3,go_nogo_deval,429,,<img class = center src='/static/experiments/go_nogo_deval/images/blue_circle.png'></img>,32,850,test,blue_circle,nogo2,-1,24,3,,,,,,