text,rt,key_press,block_duration,timing_post_trial,trial_id,trial_type,trial_index,time_elapsed,internal_node_id,exp_id,subject_ID,view_history,stimulus,possible_responses,stim_duration,exp_stage,stim,go_nogo_type,correct_response,current_trial,current_block,chosenStim,chosenCond,stimLeft,cond_left,stimRight,cond_right<div class = centerbox><p class = center-block-text>Welcome to the task!</p><p class = center-block-text>Press<strong> enter</strong> to continue.</p></div>,1973,13,1973,0,welcome,poldrack-text,0,1975,0.0-0.0,go_nogo_deval,442,,,,,,,,,,,,,,,,,53956,,,,instruction,poldrack-instructions,1,55933,0.0-1.0,go_nogo_deval,442,"[{""page_index"":0,""viewing_time"":3106},{""page_index"":1,""viewing_time"":50850}]",,,,,,,,,,,,,,,,27873,13,27873,0,stop_intro_phase1,poldrack-single-stim,2,84808,0.0-2.0,go_nogo_deval,442,,"<div class = centerbox><p class = block-text>We will now start the practice for the experiment.<br><br>For these trials, you must press the <strong>spacebar </strong> or have <strong>no response</strong> depending on the shape of the stimulus.  Make sure to respond as quickly and accurately as possible to the shape. <br><br> The responses for each shape are as follows: <ul list-text><li>triangle: spacebar</li><li>rhombus: spacebar</li><li>circle: no response</li><li>pentagon: no response</li></ul></p><p class = block-text>Remember these rules before you proceed.</p><p class = block-text>Press <strong> enter</strong> to begin.</p></div>",13,27873,,,,,,,,,,,,,4396,13,4396,0,practice-no-stop-feedback,poldrack-single-stim,3,89207,0.0-3.0-0.0,go_nogo_deval,442,,<div class = centerbox><p class = block-text>We will now start with a practice session. In this practice concentrate on responding quickly and accurately to each stimuli unless it requires no response.</p><p class = block-text>Press enter to continue.</p></div>,13,4396,,,,,,,,,,,,,-1,-1,500,0,prompt_fixation,poldrack-single-stim,4,89709,0.0-3.0-1.0,go_nogo_deval,442,,<div class = centerbox><div class = fixation>+</div></div>,none,500,practice,,,,,,,,,,,,643,32,850,0,stim,poldrack-single-stim,5,90561,0.0-3.0-2.0,go_nogo_deval,442,,<img class = center src='/static/experiments/go_nogo_deval/images/purple_rhombus.png'></img>,32,850,practice,purple_rhombus,go2,32,0,0,,,,,,,-1,-1,1400,0,ITI,poldrack-single-stim,6,91964,0.0-3.0-3.0,go_nogo_deval,442,,<div></div>,32,1400,practice,,,,,,,,,,,,-1,-1,500,0,prompt_fixation,poldrack-single-stim,7,92466,0.0-3.0-4.0,go_nogo_deval,442,,<div class = centerbox><div class = fixation>+</div></div>,none,500,practice,,,,,,,,,,,,318,32,850,0,stim,poldrack-single-stim,8,93317,0.0-3.0-5.0,go_nogo_deval,442,,<img class = center src='/static/experiments/go_nogo_deval/images/red_circle.png'></img>,32,850,practice,red_circle,nogo1,-1,1,0,,,,,,,-1,-1,1400,0,ITI,poldrack-single-stim,9,94718,0.0-3.0-6.0,go_nogo_deval,442,,<div></div>,32,1400,practice,,,,,,,,,,,,-1,-1,500,0,prompt_fixation,poldrack-single-stim,10,95220,0.0-3.0-7.0,go_nogo_deval,442,,<div class = centerbox><div class = fixation>+</div></div>,none,500,practice,,,,,,,,,,,,455,32,850,0,stim,poldrack-single-stim,11,96071,0.0-3.0-8.0,go_nogo_deval,442,,<img class = center src='/static/experiments/go_nogo_deval/images/blue_triangle.png'></img>,32,850,practice,blue_triangle,go1,32,2,0,,,,,,,-1,-1,1400,0,ITI,poldrack-single-stim,12,97473,0.0-3.0-9.0,go_nogo_deval,442,,<div></div>,32,1400,practice,,,,,,,,,,,,-1,-1,500,0,prompt_fixation,poldrack-single-stim,13,97975,0.0-3.0-10.0,go_nogo_deval,442,,<div class = centerbox><div class = fixation>+</div></div>,none,500,practice,,,,,,,,,,,,-1,-1,850,0,stim,poldrack-single-stim,14,98827,0.0-3.0-11.0,go_nogo_deval,442,,<img class = center src='/static/experiments/go_nogo_deval/images/green_pentagon.png'></img>,32,850,practice,green_pentagon,nogo2,-1,3,0,,,,,,,-1,-1,1400,0,ITI,poldrack-single-stim,15,100229,0.0-3.0-12.0,go_nogo_deval,442,,<div></div>,32,1400,practice,,,,,,,,,,,,-1,-1,500,0,prompt_fixation,poldrack-single-stim,16,100731,0.0-3.0-13.0,go_nogo_deval,442,,<div class = centerbox><div class = fixation>+</div></div>,none,500,practice,,,,,,,,,,,,569,32,850,0,stim,poldrack-single-stim,17,101583,0.0-3.0-14.0,go_nogo_deval,442,,<img class = center src='/static/experiments/go_nogo_deval/images/purple_rhombus.png'></img>,32,850,practice,purple_rhombus,go2,32,4,0,,,,,,,-1,-1,1400,0,ITI,poldrack-single-stim,18,102984,0.0-3.0-15.0,go_nogo_deval,442,,<div></div>,32,1400,practice,,,,,,,,,,,,-1,-1,500,0,prompt_fixation,poldrack-single-stim,19,103486,0.0-3.0-16.0,go_nogo_deval,442,,<div class = centerbox><div class = fixation>+</div></div>,none,500,practice,,,,,,,,,,,,559,32,850,0,stim,poldrack-single-stim,20,104336,0.0-3.0-17.0,go_nogo_deval,442,,<img class = center src='/static/experiments/go_nogo_deval/images/green_pentagon.png'></img>,32,850,practice,green_pentagon,nogo2,-1,5,0,,,,,,,-1,-1,1400,0,ITI,poldrack-single-stim,21,105739,0.0-3.0-18.0,go_nogo_deval,442,,<div></div>,32,1400,practice,,,,,,,,,,,,-1,-1,500,0,prompt_fixation,poldrack-single-stim,22,106241,0.0-3.0-19.0,go_nogo_deval,442,,<div class = centerbox><div class = fixation>+</div></div>,none,500,practice,,,,,,,,,,,,493,32,850,0,stim,poldrack-single-stim,23,107093,0.0-3.0-20.0,go_nogo_deval,442,,<img class = center src='/static/experiments/go_nogo_deval/images/purple_rhombus.png'></img>,32,850,practice,purple_rhombus,go2,32,6,0,,,,,,,-1,-1,1400,0,ITI,poldrack-single-stim,24,108495,0.0-3.0-21.0,go_nogo_deval,442,,<div></div>,32,1400,practice,,,,,,,,,,,,-1,-1,500,0,prompt_fixation,poldrack-single-stim,25,108997,0.0-3.0-22.0,go_nogo_deval,442,,<div class = centerbox><div class = fixation>+</div></div>,none,500,practice,,,,,,,,,,,,459,32,850,0,stim,poldrack-single-stim,26,109849,0.0-3.0-23.0,go_nogo_deval,442,,<img class = center src='/static/experiments/go_nogo_deval/images/purple_rhombus.png'></img>,32,850,practice,purple_rhombus,go2,32,7,0,,,,,,,-1,-1,1400,0,ITI,poldrack-single-stim,27,111250,0.0-3.0-24.0,go_nogo_deval,442,,<div></div>,32,1400,practice,,,,,,,,,,,,-1,-1,500,0,prompt_fixation,poldrack-single-stim,28,111752,0.0-3.0-25.0,go_nogo_deval,442,,<div class = centerbox><div class = fixation>+</div></div>,none,500,practice,,,,,,,,,,,,415,32,850,0,stim,poldrack-single-stim,29,112603,0.0-3.0-26.0,go_nogo_deval,442,,<img class = center src='/static/experiments/go_nogo_deval/images/blue_triangle.png'></img>,32,850,practice,blue_triangle,go1,32,8,0,,,,,,,-1,-1,1400,0,ITI,poldrack-single-stim,30,114004,0.0-3.0-27.0,go_nogo_deval,442,,<div></div>,32,1400,practice,,,,,,,,,,,,-1,-1,500,0,prompt_fixation,poldrack-single-stim,31,114505,0.0-3.0-28.0,go_nogo_deval,442,,<div class = centerbox><div class = fixation>+</div></div>,none,500,practice,,,,,,,,,,,,485,32,850,0,stim,poldrack-single-stim,32,115357,0.0-3.0-29.0,go_nogo_deval,442,,<img class = center src='/static/experiments/go_nogo_deval/images/purple_rhombus.png'></img>,32,850,practice,purple_rhombus,go2,32,9,0,,,,,,,-1,-1,1400,0,ITI,poldrack-single-stim,33,116759,0.0-3.0-30.0,go_nogo_deval,442,,<div></div>,32,1400,practice,,,,,,,,,,,,-1,-1,500,0,prompt_fixation,poldrack-single-stim,34,117260,0.0-3.0-31.0,go_nogo_deval,442,,<div class = centerbox><div class = fixation>+</div></div>,none,500,practice,,,,,,,,,,,,431,32,850,0,stim,poldrack-single-stim,35,118111,0.0-3.0-32.0,go_nogo_deval,442,,<img class = center src='/static/experiments/go_nogo_deval/images/purple_rhombus.png'></img>,32,850,practice,purple_rhombus,go2,32,10,0,,,,,,,-1,-1,1400,0,ITI,poldrack-single-stim,36,119513,0.0-3.0-33.0,go_nogo_deval,442,,<div></div>,32,1400,practice,,,,,,,,,,,,-1,-1,500,0,prompt_fixation,poldrack-single-stim,37,120015,0.0-3.0-34.0,go_nogo_deval,442,,<div class = centerbox><div class = fixation>+</div></div>,none,500,practice,,,,,,,,,,,,477,32,850,0,stim,poldrack-single-stim,38,120866,0.0-3.0-35.0,go_nogo_deval,442,,<img class = center src='/static/experiments/go_nogo_deval/images/blue_triangle.png'></img>,32,850,practice,blue_triangle,go1,32,11,0,,,,,,,-1,-1,1400,0,ITI,poldrack-single-stim,39,122268,0.0-3.0-36.0,go_nogo_deval,442,,<div></div>,32,1400,practice,,,,,,,,,,,,-1,-1,500,0,prompt_fixation,poldrack-single-stim,40,122770,0.0-3.0-37.0,go_nogo_deval,442,,<div class = centerbox><div class = fixation>+</div></div>,none,500,practice,,,,,,,,,,,,467,32,850,0,stim,poldrack-single-stim,41,123622,0.0-3.0-38.0,go_nogo_deval,442,,<img class = center src='/static/experiments/go_nogo_deval/images/blue_triangle.png'></img>,32,850,practice,blue_triangle,go1,32,12,0,,,,,,,-1,-1,1400,0,ITI,poldrack-single-stim,42,125023,0.0-3.0-39.0,go_nogo_deval,442,,<div></div>,32,1400,practice,,,,,,,,,,,,-1,-1,500,0,prompt_fixation,poldrack-single-stim,43,125525,0.0-3.0-40.0,go_nogo_deval,442,,<div class = centerbox><div class = fixation>+</div></div>,none,500,practice,,,,,,,,,,,,-1,-1,850,0,stim,poldrack-single-stim,44,126377,0.0-3.0-41.0,go_nogo_deval,442,,<img class = center src='/static/experiments/go_nogo_deval/images/red_circle.png'></img>,32,850,practice,red_circle,nogo1,-1,13,0,,,,,,,-1,-1,1400,0,ITI,poldrack-single-stim,45,127779,0.0-3.0-42.0,go_nogo_deval,442,,<div></div>,32,1400,practice,,,,,,,,,,,,-1,-1,500,0,prompt_fixation,poldrack-single-stim,46,128281,0.0-3.0-43.0,go_nogo_deval,442,,<div class = centerbox><div class = fixation>+</div></div>,none,500,practice,,,,,,,,,,,,468,32,850,0,stim,poldrack-single-stim,47,129134,0.0-3.0-44.0,go_nogo_deval,442,,<img class = center src='/static/experiments/go_nogo_deval/images/blue_triangle.png'></img>,32,850,practice,blue_triangle,go1,32,14,0,,,,,,,-1,-1,1400,0,ITI,poldrack-single-stim,48,130536,0.0-3.0-45.0,go_nogo_deval,442,,<div></div>,32,1400,practice,,,,,,,,,,,,-1,-1,500,0,prompt_fixation,poldrack-single-stim,49,131038,0.0-3.0-46.0,go_nogo_deval,442,,<div class = centerbox><div class = fixation>+</div></div>,none,500,practice,,,,,,,,,,,,558,32,850,0,stim,poldrack-single-stim,50,131890,0.0-3.0-47.0,go_nogo_deval,442,,<img class = center src='/static/experiments/go_nogo_deval/images/green_pentagon.png'></img>,32,850,practice,green_pentagon,nogo2,-1,15,0,,,,,,,-1,-1,1400,0,ITI,poldrack-single-stim,51,133291,0.0-3.0-48.0,go_nogo_deval,442,,<div></div>,32,1400,practice,,,,,,,,,,,,-1,-1,500,0,prompt_fixation,poldrack-single-stim,52,133793,0.0-3.0-49.0,go_nogo_deval,442,,<div class = centerbox><div class = fixation>+</div></div>,none,500,practice,,,,,,,,,,,,481,32,850,0,stim,poldrack-single-stim,53,134645,0.0-3.0-50.0,go_nogo_deval,442,,<img class = center src='/static/experiments/go_nogo_deval/images/blue_triangle.png'></img>,32,850,practice,blue_triangle,go1,32,16,0,,,,,,,-1,-1,1400,0,ITI,poldrack-single-stim,54,136047,0.0-3.0-51.0,go_nogo_deval,442,,<div></div>,32,1400,practice,,,,,,,,,,,,-1,-1,500,0,prompt_fixation,poldrack-single-stim,55,136548,0.0-3.0-52.0,go_nogo_deval,442,,<div class = centerbox><div class = fixation>+</div></div>,none,500,practice,,,,,,,,,,,,-1,-1,850,0,stim,poldrack-single-stim,56,137400,0.0-3.0-53.0,go_nogo_deval,442,,<img class = center src='/static/experiments/go_nogo_deval/images/red_circle.png'></img>,32,850,practice,red_circle,nogo1,-1,17,0,,,,,,,-1,-1,1400,0,ITI,poldrack-single-stim,57,138802,0.0-3.0-54.0,go_nogo_deval,442,,<div></div>,32,1400,practice,,,,,,,,,,,,5562,13,5562,0,practice-no-stop-feedback,poldrack-single-stim,58,144366,0.0-4.0,go_nogo_deval,442,,<div class = centerbox><p class = block-text><br>Please take this time to read your feedback and to take a short break! Press enter to continue</p><p class = block-text><strong>Average reaction time:  485 ms. Accuracy: 83%</strong></p><p class = block-text>Done with this practice.</p></div>,13,5562,,,,,,,,,,,,,35302,13,35302,0,main_stop_intro_phase3,poldrack-single-stim,59,179669,0.0-5.0,go_nogo_deval,442,,"<div class = centerbox><p class = block-text>We will now start the main phase of the experiment.<br><br>These trials are the same as the trials that you have just completed. <br><br>The rules for each shape are as follows:  <br><ul list-text><li>triangle: spacebar</li><li>rhombus: spacebar</li><li>circle: no response</li><li>pentagon: no response</li></ul></p><p class = block-text>Remember these rules before you proceed, as they will no longer be presented during the trial.</p><p class = block-text>Press <strong> enter</strong> to begin.</p></div>",13,35302,,,,,,,,,,,,,2328,13,2328,0,practice-no-stop-feedback,poldrack-single-stim,60,181997,0.0-6.0-0.0,go_nogo_deval,442,,"<div class = centerbox><p class = block-text>We will now start with a test session. In this test, concentrate on responding quickly and accurately to each stimuli unless it requires no response.</p><p class = block-text>Press enter to continue.</p></div>",13,2328,,,,,,,,,,,,,-1,-1,500,0,fixation,poldrack-single-stim,61,182499,0.0-6.0-1.0,go_nogo_deval,442,,<div class = centerbox><div class = fixation>+</div></div>,none,500,test,,,,,,,,,,,,521,32,850,0,stim,poldrack-single-stim,62,183351,0.0-6.0-2.0,go_nogo_deval,442,,<img class = center src='/static/experiments/go_nogo_deval/images/purple_rhombus.png'></img>,32,850,test,purple_rhombus,go2,32,0,0,,,,,,,-1,-1,1400,0,ITI,poldrack-single-stim,63,184752,0.0-6.0-3.0,go_nogo_deval,442,,<div></div>,32,1400,test,,,,,,,,,,,,-1,-1,500,0,fixation,poldrack-single-stim,64,185253,0.0-6.0-4.0,go_nogo_deval,442,,<div class = centerbox><div class = fixation>+</div></div>,none,500,test,,,,,,,,,,,,422,32,850,0,stim,poldrack-single-stim,65,186105,0.0-6.0-5.0,go_nogo_deval,442,,<img class = center src='/static/experiments/go_nogo_deval/images/blue_triangle.png'></img>,32,850,test,blue_triangle,go1,32,1,0,,,,,,,-1,-1,1400,0,ITI,poldrack-single-stim,66,187507,0.0-6.0-6.0,go_nogo_deval,442,,<div></div>,32,1400,test,,,,,,,,,,,,-1,-1,500,0,fixation,poldrack-single-stim,67,188009,0.0-6.0-7.0,go_nogo_deval,442,,<div class = centerbox><div class = fixation>+</div></div>,none,500,test,,,,,,,,,,,,378,32,850,0,stim,poldrack-single-stim,68,188859,0.0-6.0-8.0,go_nogo_deval,442,,<img class = center src='/static/experiments/go_nogo_deval/images/blue_triangle.png'></img>,32,850,test,blue_triangle,go1,32,2,0,,,,,,,-1,-1,1400,0,ITI,poldrack-single-stim,69,190261,0.0-6.0-9.0,go_nogo_deval,442,,<div></div>,32,1400,test,,,,,,,,,,,,-1,-1,500,0,fixation,poldrack-single-stim,70,190763,0.0-6.0-10.0,go_nogo_deval,442,,<div class = centerbox><div class = fixation>+</div></div>,none,500,test,,,,,,,,,,,,-1,-1,850,0,stim,poldrack-single-stim,71,191615,0.0-6.0-11.0,go_nogo_deval,442,,<img class = center src='/static/experiments/go_nogo_deval/images/red_circle.png'></img>,32,850,test,red_circle,nogo1,-1,3,0,,,,,,,-1,-1,1400,0,ITI,poldrack-single-stim,72,193016,0.0-6.0-12.0,go_nogo_deval,442,,<div></div>,32,1400,test,,,,,,,,,,,,-1,-1,500,0,fixation,poldrack-single-stim,73,193517,0.0-6.0-13.0,go_nogo_deval,442,,<div class = centerbox><div class = fixation>+</div></div>,none,500,test,,,,,,,,,,,,-1,-1,850,0,stim,poldrack-single-stim,74,194370,0.0-6.0-14.0,go_nogo_deval,442,,<img class = center src='/static/experiments/go_nogo_deval/images/red_circle.png'></img>,32,850,test,red_circle,nogo1,-1,4,0,,,,,,,-1,-1,1400,0,ITI,poldrack-single-stim,75,195772,0.0-6.0-15.0,go_nogo_deval,442,,<div></div>,32,1400,test,,,,,,,,,,,,-1,-1,500,0,fixation,poldrack-single-stim,76,196273,0.0-6.0-16.0,go_nogo_deval,442,,<div class = centerbox><div class = fixation>+</div></div>,none,500,test,,,,,,,,,,,,393,32,850,0,stim,poldrack-single-stim,77,197125,0.0-6.0-17.0,go_nogo_deval,442,,<img class = center src='/static/experiments/go_nogo_deval/images/blue_triangle.png'></img>,32,850,test,blue_triangle,go1,32,5,0,,,,,,,-1,-1,1400,0,ITI,poldrack-single-stim,78,198527,0.0-6.0-18.0,go_nogo_deval,442,,<div></div>,32,1400,test,,,,,,,,,,,,-1,-1,500,0,fixation,poldrack-single-stim,79,199029,0.0-6.0-19.0,go_nogo_deval,442,,<div class = centerbox><div class = fixation>+</div></div>,none,500,test,,,,,,,,,,,,-1,-1,850,0,stim,poldrack-single-stim,80,199881,0.0-6.0-20.0,go_nogo_deval,442,,<img class = center src='/static/experiments/go_nogo_deval/images/green_pentagon.png'></img>,32,850,test,green_pentagon,nogo2,-1,6,0,,,,,,,-1,-1,1400,0,ITI,poldrack-single-stim,81,201282,0.0-6.0-21.0,go_nogo_deval,442,,<div></div>,32,1400,test,,,,,,,,,,,,-1,-1,500,0,fixation,poldrack-single-stim,82,201783,0.0-6.0-22.0,go_nogo_deval,442,,<div class = centerbox><div class = fixation>+</div></div>,none,500,test,,,,,,,,,,,,609,32,850,0,stim,poldrack-single-stim,83,202635,0.0-6.0-23.0,go_nogo_deval,442,,<img class = center src='/static/experiments/go_nogo_deval/images/purple_rhombus.png'></img>,32,850,test,purple_rhombus,go2,32,7,0,,,,,,,-1,-1,1400,0,ITI,poldrack-single-stim,84,204037,0.0-6.0-24.0,go_nogo_deval,442,,<div></div>,32,1400,test,,,,,,,,,,,,-1,-1,500,0,fixation,poldrack-single-stim,85,204539,0.0-6.0-25.0,go_nogo_deval,442,,<div class = centerbox><div class = fixation>+</div></div>,none,500,test,,,,,,,,,,,,486,32,850,0,stim,poldrack-single-stim,86,205391,0.0-6.0-26.0,go_nogo_deval,442,,<img class = center src='/static/experiments/go_nogo_deval/images/blue_triangle.png'></img>,32,850,test,blue_triangle,go1,32,8,0,,,,,,,-1,-1,1400,0,ITI,poldrack-single-stim,87,206793,0.0-6.0-27.0,go_nogo_deval,442,,<div></div>,32,1400,test,,,,,,,,,,,,-1,-1,500,0,fixation,poldrack-single-stim,88,207295,0.0-6.0-28.0,go_nogo_deval,442,,<div class = centerbox><div class = fixation>+</div></div>,none,500,test,,,,,,,,,,,,465,32,850,0,stim,poldrack-single-stim,89,208146,0.0-6.0-29.0,go_nogo_deval,442,,<img class = center src='/static/experiments/go_nogo_deval/images/purple_rhombus.png'></img>,32,850,test,purple_rhombus,go2,32,9,0,,,,,,,-1,-1,1400,0,ITI,poldrack-single-stim,90,209547,0.0-6.0-30.0,go_nogo_deval,442,,<div></div>,32,1400,test,,,,,,,,,,,,-1,-1,500,0,fixation,poldrack-single-stim,91,210049,0.0-6.0-31.0,go_nogo_deval,442,,<div class = centerbox><div class = fixation>+</div></div>,none,500,test,,,,,,,,,,,,-1,-1,850,0,stim,poldrack-single-stim,92,210901,0.0-6.0-32.0,go_nogo_deval,442,,<img class = center src='/static/experiments/go_nogo_deval/images/red_circle.png'></img>,32,850,test,red_circle,nogo1,-1,10,0,,,,,,,-1,-1,1400,0,ITI,poldrack-single-stim,93,212303,0.0-6.0-33.0,go_nogo_deval,442,,<div></div>,32,1400,test,,,,,,,,,,,,-1,-1,500,0,fixation,poldrack-single-stim,94,212804,0.0-6.0-34.0,go_nogo_deval,442,,<div class = centerbox><div class = fixation>+</div></div>,none,500,test,,,,,,,,,,,,479,32,850,0,stim,poldrack-single-stim,95,213656,0.0-6.0-35.0,go_nogo_deval,442,,<img class = center src='/static/experiments/go_nogo_deval/images/blue_triangle.png'></img>,32,850,test,blue_triangle,go1,32,11,0,,,,,,,-1,-1,1400,0,ITI,poldrack-single-stim,96,215057,0.0-6.0-36.0,go_nogo_deval,442,,<div></div>,32,1400,test,,,,,,,,,,,,-1,-1,500,0,fixation,poldrack-single-stim,97,215560,0.0-6.0-37.0,go_nogo_deval,442,,<div class = centerbox><div class = fixation>+</div></div>,none,500,test,,,,,,,,,,,,-1,-1,850,0,stim,poldrack-single-stim,98,216412,0.0-6.0-38.0,go_nogo_deval,442,,<img class = center src='/static/experiments/go_nogo_deval/images/red_circle.png'></img>,32,850,test,red_circle,nogo1,-1,12,0,,,,,,,-1,-1,1400,0,ITI,poldrack-single-stim,99,217813,0.0-6.0-39.0,go_nogo_deval,442,,<div></div>,32,1400,test,,,,,,,,,,,,-1,-1,500,0,fixation,poldrack-single-stim,100,218315,0.0-6.0-40.0,go_nogo_deval,442,,<div class = centerbox><div class = fixation>+</div></div>,none,500,test,,,,,,,,,,,,435,32,850,0,stim,poldrack-single-stim,101,219168,0.0-6.0-41.0,go_nogo_deval,442,,<img class = center src='/static/experiments/go_nogo_deval/images/blue_triangle.png'></img>,32,850,test,blue_triangle,go1,32,13,0,,,,,,,-1,-1,1400,0,ITI,poldrack-single-stim,102,220569,0.0-6.0-42.0,go_nogo_deval,442,,<div></div>,32,1400,test,,,,,,,,,,,,-1,-1,500,0,fixation,poldrack-single-stim,103,221070,0.0-6.0-43.0,go_nogo_deval,442,,<div class = centerbox><div class = fixation>+</div></div>,none,500,test,,,,,,,,,,,,447,32,850,0,stim,poldrack-single-stim,104,221921,0.0-6.0-44.0,go_nogo_deval,442,,<img class = center src='/static/experiments/go_nogo_deval/images/purple_rhombus.png'></img>,32,850,test,purple_rhombus,go2,32,14,0,,,,,,,-1,-1,1400,0,ITI,poldrack-single-stim,105,223322,0.0-6.0-45.0,go_nogo_deval,442,,<div></div>,32,1400,test,,,,,,,,,,,,-1,-1,500,0,fixation,poldrack-single-stim,106,223824,0.0-6.0-46.0,go_nogo_deval,442,,<div class = centerbox><div class = fixation>+</div></div>,none,500,test,,,,,,,,,,,,473,32,850,0,stim,poldrack-single-stim,107,224676,0.0-6.0-47.0,go_nogo_deval,442,,<img class = center src='/static/experiments/go_nogo_deval/images/purple_rhombus.png'></img>,32,850,test,purple_rhombus,go2,32,15,0,,,,,,,-1,-1,1400,0,ITI,poldrack-single-stim,108,226078,0.0-6.0-48.0,go_nogo_deval,442,,<div></div>,32,1400,test,,,,,,,,,,,,-1,-1,500,0,fixation,poldrack-single-stim,109,226580,0.0-6.0-49.0,go_nogo_deval,442,,<div class = centerbox><div class = fixation>+</div></div>,none,500,test,,,,,,,,,,,,462,32,850,0,stim,poldrack-single-stim,110,227432,0.0-6.0-50.0,go_nogo_deval,442,,<img class = center src='/static/experiments/go_nogo_deval/images/blue_triangle.png'></img>,32,850,test,blue_triangle,go1,32,16,0,,,,,,,-1,-1,1400,0,ITI,poldrack-single-stim,111,228833,0.0-6.0-51.0,go_nogo_deval,442,,<div></div>,32,1400,test,,,,,,,,,,,,-1,-1,500,0,fixation,poldrack-single-stim,112,229334,0.0-6.0-52.0,go_nogo_deval,442,,<div class = centerbox><div class = fixation>+</div></div>,none,500,test,,,,,,,,,,,,464,32,850,0,stim,poldrack-single-stim,113,230186,0.0-6.0-53.0,go_nogo_deval,442,,<img class = center src='/static/experiments/go_nogo_deval/images/blue_triangle.png'></img>,32,850,test,blue_triangle,go1,32,17,0,,,,,,,-1,-1,1400,0,ITI,poldrack-single-stim,114,231588,0.0-6.0-54.0,go_nogo_deval,442,,<div></div>,32,1400,test,,,,,,,,,,,,-1,-1,500,0,fixation,poldrack-single-stim,115,232090,0.0-6.0-55.0,go_nogo_deval,442,,<div class = centerbox><div class = fixation>+</div></div>,none,500,test,,,,,,,,,,,,-1,-1,850,0,stim,poldrack-single-stim,116,232941,0.0-6.0-56.0,go_nogo_deval,442,,<img class = center src='/static/experiments/go_nogo_deval/images/green_pentagon.png'></img>,32,850,test,green_pentagon,nogo2,-1,18,0,,,,,,,-1,-1,1400,0,ITI,poldrack-single-stim,117,234342,0.0-6.0-57.0,go_nogo_deval,442,,<div></div>,32,1400,test,,,,,,,,,,,,-1,-1,500,0,fixation,poldrack-single-stim,118,234844,0.0-6.0-58.0,go_nogo_deval,442,,<div class = centerbox><div class = fixation>+</div></div>,none,500,test,,,,,,,,,,,,489,32,850,0,stim,poldrack-single-stim,119,235696,0.0-6.0-59.0,go_nogo_deval,442,,<img class = center src='/static/experiments/go_nogo_deval/images/purple_rhombus.png'></img>,32,850,test,purple_rhombus,go2,32,19,0,,,,,,,-1,-1,1400,0,ITI,poldrack-single-stim,120,237097,0.0-6.0-60.0,go_nogo_deval,442,,<div></div>,32,1400,test,,,,,,,,,,,,-1,-1,500,0,fixation,poldrack-single-stim,121,237598,0.0-6.0-61.0,go_nogo_deval,442,,<div class = centerbox><div class = fixation>+</div></div>,none,500,test,,,,,,,,,,,,514,32,850,0,stim,poldrack-single-stim,122,238449,0.0-6.0-62.0,go_nogo_deval,442,,<img class = center src='/static/experiments/go_nogo_deval/images/purple_rhombus.png'></img>,32,850,test,purple_rhombus,go2,32,20,0,,,,,,,-1,-1,1400,0,ITI,poldrack-single-stim,123,239851,0.0-6.0-63.0,go_nogo_deval,442,,<div></div>,32,1400,test,,,,,,,,,,,,-1,-1,500,0,fixation,poldrack-single-stim,124,240353,0.0-6.0-64.0,go_nogo_deval,442,,<div class = centerbox><div class = fixation>+</div></div>,none,500,test,,,,,,,,,,,,505,32,850,0,stim,poldrack-single-stim,125,241205,0.0-6.0-65.0,go_nogo_deval,442,,<img class = center src='/static/experiments/go_nogo_deval/images/purple_rhombus.png'></img>,32,850,test,purple_rhombus,go2,32,21,0,,,,,,,-1,-1,1400,0,ITI,poldrack-single-stim,126,242605,0.0-6.0-66.0,go_nogo_deval,442,,<div></div>,32,1400,test,,,,,,,,,,,,-1,-1,500,0,fixation,poldrack-single-stim,127,243107,0.0-6.0-67.0,go_nogo_deval,442,,<div class = centerbox><div class = fixation>+</div></div>,none,500,test,,,,,,,,,,,,450,32,850,0,stim,poldrack-single-stim,128,243958,0.0-6.0-68.0,go_nogo_deval,442,,<img class = center src='/static/experiments/go_nogo_deval/images/blue_triangle.png'></img>,32,850,test,blue_triangle,go1,32,22,0,,,,,,,-1,-1,1400,0,ITI,poldrack-single-stim,129,245360,0.0-6.0-69.0,go_nogo_deval,442,,<div></div>,32,1400,test,,,,,,,,,,,,-1,-1,500,0,fixation,poldrack-single-stim,130,245861,0.0-6.0-70.0,go_nogo_deval,442,,<div class = centerbox><div class = fixation>+</div></div>,none,500,test,,,,,,,,,,,,429,32,850,0,stim,poldrack-single-stim,131,246714,0.0-6.0-71.0,go_nogo_deval,442,,<img class = center src='/static/experiments/go_nogo_deval/images/purple_rhombus.png'></img>,32,850,test,purple_rhombus,go2,32,23,0,,,,,,,-1,-1,1400,0,ITI,poldrack-single-stim,132,248116,0.0-6.0-72.0,go_nogo_deval,442,,<div></div>,32,1400,test,,,,,,,,,,,,-1,-1,500,0,fixation,poldrack-single-stim,133,248618,0.0-6.0-73.0,go_nogo_deval,442,,<div class = centerbox><div class = fixation>+</div></div>,none,500,test,,,,,,,,,,,,-1,-1,850,0,stim,poldrack-single-stim,134,249470,0.0-6.0-74.0,go_nogo_deval,442,,<img class = center src='/static/experiments/go_nogo_deval/images/green_pentagon.png'></img>,32,850,test,green_pentagon,nogo2,-1,24,0,,,,,,,-1,-1,1400,0,ITI,poldrack-single-stim,135,250871,0.0-6.0-75.0,go_nogo_deval,442,,<div></div>,32,1400,test,,,,,,,,,,,,-1,-1,500,0,fixation,poldrack-single-stim,136,251373,0.0-6.0-76.0,go_nogo_deval,442,,<div class = centerbox><div class = fixation>+</div></div>,none,500,test,,,,,,,,,,,,476,32,850,0,stim,poldrack-single-stim,137,252225,0.0-6.0-77.0,go_nogo_deval,442,,<img class = center src='/static/experiments/go_nogo_deval/images/blue_triangle.png'></img>,32,850,test,blue_triangle,go1,32,25,0,,,,,,,-1,-1,1400,0,ITI,poldrack-single-stim,138,253626,0.0-6.0-78.0,go_nogo_deval,442,,<div></div>,32,1400,test,,,,,,,,,,,,-1,-1,500,0,fixation,poldrack-single-stim,139,254128,0.0-6.0-79.0,go_nogo_deval,442,,<div class = centerbox><div class = fixation>+</div></div>,none,500,test,,,,,,,,,,,,466,32,850,0,stim,poldrack-single-stim,140,254979,0.0-6.0-80.0,go_nogo_deval,442,,<img class = center src='/static/experiments/go_nogo_deval/images/blue_triangle.png'></img>,32,850,test,blue_triangle,go1,32,26,0,,,,,,,-1,-1,1400,0,ITI,poldrack-single-stim,141,256380,0.0-6.0-81.0,go_nogo_deval,442,,<div></div>,32,1400,test,,,,,,,,,,,,-1,-1,500,0,fixation,poldrack-single-stim,142,256882,0.0-6.0-82.0,go_nogo_deval,442,,<div class = centerbox><div class = fixation>+</div></div>,none,500,test,,,,,,,,,,,,-1,-1,850,0,stim,poldrack-single-stim,143,257734,0.0-6.0-83.0,go_nogo_deval,442,,<img class = center src='/static/experiments/go_nogo_deval/images/red_circle.png'></img>,32,850,test,red_circle,nogo1,-1,27,0,,,,,,,-1,-1,1400,0,ITI,poldrack-single-stim,144,259136,0.0-6.0-84.0,go_nogo_deval,442,,<div></div>,32,1400,test,,,,,,,,,,,,-1,-1,500,0,fixation,poldrack-single-stim,145,259636,0.0-6.0-85.0,go_nogo_deval,442,,<div class = centerbox><div class = fixation>+</div></div>,none,500,test,,,,,,,,,,,,503,32,850,0,stim,poldrack-single-stim,146,260488,0.0-6.0-86.0,go_nogo_deval,442,,<img class = center src='/static/experiments/go_nogo_deval/images/purple_rhombus.png'></img>,32,850,test,purple_rhombus,go2,32,28,0,,,,,,,-1,-1,1400,0,ITI,poldrack-single-stim,147,261890,0.0-6.0-87.0,go_nogo_deval,442,,<div></div>,32,1400,test,,,,,,,,,,,,-1,-1,500,0,fixation,poldrack-single-stim,148,262392,0.0-6.0-88.0,go_nogo_deval,442,,<div class = centerbox><div class = fixation>+</div></div>,none,500,test,,,,,,,,,,,,413,32,850,0,stim,poldrack-single-stim,149,263244,0.0-6.0-89.0,go_nogo_deval,442,,<img class = center src='/static/experiments/go_nogo_deval/images/purple_rhombus.png'></img>,32,850,test,purple_rhombus,go2,32,29,0,,,,,,,-1,-1,1400,0,ITI,poldrack-single-stim,150,264646,0.0-6.0-90.0,go_nogo_deval,442,,<div></div>,32,1400,test,,,,,,,,,,,,-1,-1,500,0,fixation,poldrack-single-stim,151,265148,0.0-6.0-91.0,go_nogo_deval,442,,<div class = centerbox><div class = fixation>+</div></div>,none,500,test,,,,,,,,,,,,-1,-1,850,0,stim,poldrack-single-stim,152,265999,0.0-6.0-92.0,go_nogo_deval,442,,<img class = center src='/static/experiments/go_nogo_deval/images/red_circle.png'></img>,32,850,test,red_circle,nogo1,-1,30,0,,,,,,,-1,-1,1400,0,ITI,poldrack-single-stim,153,267400,0.0-6.0-93.0,go_nogo_deval,442,,<div></div>,32,1400,test,,,,,,,,,,,,-1,-1,500,0,fixation,poldrack-single-stim,154,267902,0.0-6.0-94.0,go_nogo_deval,442,,<div class = centerbox><div class = fixation>+</div></div>,none,500,test,,,,,,,,,,,,-1,-1,850,0,stim,poldrack-single-stim,155,268754,0.0-6.0-95.0,go_nogo_deval,442,,<img class = center src='/static/experiments/go_nogo_deval/images/red_circle.png'></img>,32,850,test,red_circle,nogo1,-1,31,0,,,,,,,-1,-1,1400,0,ITI,poldrack-single-stim,156,270156,0.0-6.0-96.0,go_nogo_deval,442,,<div></div>,32,1400,test,,,,,,,,,,,,-1,-1,500,0,fixation,poldrack-single-stim,157,270657,0.0-6.0-97.0,go_nogo_deval,442,,<div class = centerbox><div class = fixation>+</div></div>,none,500,test,,,,,,,,,,,,-1,-1,850,0,stim,poldrack-single-stim,158,271509,0.0-6.0-98.0,go_nogo_deval,442,,<img class = center src='/static/experiments/go_nogo_deval/images/red_circle.png'></img>,32,850,test,red_circle,nogo1,-1,32,0,,,,,,,-1,-1,1400,0,ITI,poldrack-single-stim,159,272911,0.0-6.0-99.0,go_nogo_deval,442,,<div></div>,32,1400,test,,,,,,,,,,,,-1,-1,500,0,fixation,poldrack-single-stim,160,273413,0.0-6.0-100.0,go_nogo_deval,442,,<div class = centerbox><div class = fixation>+</div></div>,none,500,test,,,,,,,,,,,,497,32,850,0,stim,poldrack-single-stim,161,274264,0.0-6.0-101.0,go_nogo_deval,442,,<img class = center src='/static/experiments/go_nogo_deval/images/blue_triangle.png'></img>,32,850,test,blue_triangle,go1,32,33,0,,,,,,,-1,-1,1400,0,ITI,poldrack-single-stim,162,275665,0.0-6.0-102.0,go_nogo_deval,442,,<div></div>,32,1400,test,,,,,,,,,,,,-1,-1,500,0,fixation,poldrack-single-stim,163,276167,0.0-6.0-103.0,go_nogo_deval,442,,<div class = centerbox><div class = fixation>+</div></div>,none,500,test,,,,,,,,,,,,431,32,850,0,stim,poldrack-single-stim,164,277020,0.0-6.0-104.0,go_nogo_deval,442,,<img class = center src='/static/experiments/go_nogo_deval/images/purple_rhombus.png'></img>,32,850,test,purple_rhombus,go2,32,34,0,,,,,,,-1,-1,1400,0,ITI,poldrack-single-stim,165,278420,0.0-6.0-105.0,go_nogo_deval,442,,<div></div>,32,1400,test,,,,,,,,,,,,-1,-1,500,0,fixation,poldrack-single-stim,166,278922,0.0-6.0-106.0,go_nogo_deval,442,,<div class = centerbox><div class = fixation>+</div></div>,none,500,test,,,,,,,,,,,,466,32,850,0,stim,poldrack-single-stim,167,279774,0.0-6.0-107.0,go_nogo_deval,442,,<img class = center src='/static/experiments/go_nogo_deval/images/purple_rhombus.png'></img>,32,850,test,purple_rhombus,go2,32,35,0,,,,,,,-1,-1,1400,0,ITI,poldrack-single-stim,168,281176,0.0-6.0-108.0,go_nogo_deval,442,,<div></div>,32,1400,test,,,,,,,,,,,,-1,-1,500,0,fixation,poldrack-single-stim,169,281677,0.0-6.0-109.0,go_nogo_deval,442,,<div class = centerbox><div class = fixation>+</div></div>,none,500,test,,,,,,,,,,,,491,32,850,0,stim,poldrack-single-stim,170,282529,0.0-6.0-110.0,go_nogo_deval,442,,<img class = center src='/static/experiments/go_nogo_deval/images/purple_rhombus.png'></img>,32,850,test,purple_rhombus,go2,32,36,0,,,,,,,-1,-1,1400,0,ITI,poldrack-single-stim,171,283931,0.0-6.0-111.0,go_nogo_deval,442,,<div></div>,32,1400,test,,,,,,,,,,,,-1,-1,500,0,fixation,poldrack-single-stim,172,284433,0.0-6.0-112.0,go_nogo_deval,442,,<div class = centerbox><div class = fixation>+</div></div>,none,500,test,,,,,,,,,,,,469,32,850,0,stim,poldrack-single-stim,173,285284,0.0-6.0-113.0,go_nogo_deval,442,,<img class = center src='/static/experiments/go_nogo_deval/images/blue_triangle.png'></img>,32,850,test,blue_triangle,go1,32,37,0,,,,,,,-1,-1,1400,0,ITI,poldrack-single-stim,174,286686,0.0-6.0-114.0,go_nogo_deval,442,,<div></div>,32,1400,test,,,,,,,,,,,,-1,-1,500,0,fixation,poldrack-single-stim,175,287187,0.0-6.0-115.0,go_nogo_deval,442,,<div class = centerbox><div class = fixation>+</div></div>,none,500,test,,,,,,,,,,,,459,32,850,0,stim,poldrack-single-stim,176,288039,0.0-6.0-116.0,go_nogo_deval,442,,<img class = center src='/static/experiments/go_nogo_deval/images/blue_triangle.png'></img>,32,850,test,blue_triangle,go1,32,38,0,,,,,,,-1,-1,1400,0,ITI,poldrack-single-stim,177,289441,0.0-6.0-117.0,go_nogo_deval,442,,<div></div>,32,1400,test,,,,,,,,,,,,-1,-1,500,0,fixation,poldrack-single-stim,178,289943,0.0-6.0-118.0,go_nogo_deval,442,,<div class = centerbox><div class = fixation>+</div></div>,none,500,test,,,,,,,,,,,,-1,-1,850,0,stim,poldrack-single-stim,179,290795,0.0-6.0-119.0,go_nogo_deval,442,,<img class = center src='/static/experiments/go_nogo_deval/images/green_pentagon.png'></img>,32,850,test,green_pentagon,nogo2,-1,39,0,,,,,,,-1,-1,1400,0,ITI,poldrack-single-stim,180,292196,0.0-6.0-120.0,go_nogo_deval,442,,<div></div>,32,1400,test,,,,,,,,,,,,-1,-1,500,0,fixation,poldrack-single-stim,181,292698,0.0-6.0-121.0,go_nogo_deval,442,,<div class = centerbox><div class = fixation>+</div></div>,none,500,test,,,,,,,,,,,,506,32,850,0,stim,poldrack-single-stim,182,293549,0.0-6.0-122.0,go_nogo_deval,442,,<img class = center src='/static/experiments/go_nogo_deval/images/purple_rhombus.png'></img>,32,850,test,purple_rhombus,go2,32,40,0,,,,,,,-1,-1,1400,0,ITI,poldrack-single-stim,183,294950,0.0-6.0-123.0,go_nogo_deval,442,,<div></div>,32,1400,test,,,,,,,,,,,,-1,-1,500,0,fixation,poldrack-single-stim,184,295451,0.0-6.0-124.0,go_nogo_deval,442,,<div class = centerbox><div class = fixation>+</div></div>,none,500,test,,,,,,,,,,,,452,32,850,0,stim,poldrack-single-stim,185,296303,0.0-6.0-125.0,go_nogo_deval,442,,<img class = center src='/static/experiments/go_nogo_deval/images/purple_rhombus.png'></img>,32,850,test,purple_rhombus,go2,32,41,0,,,,,,,-1,-1,1400,0,ITI,poldrack-single-stim,186,297704,0.0-6.0-126.0,go_nogo_deval,442,,<div></div>,32,1400,test,,,,,,,,,,,,-1,-1,500,0,fixation,poldrack-single-stim,187,298205,0.0-6.0-127.0,go_nogo_deval,442,,<div class = centerbox><div class = fixation>+</div></div>,none,500,test,,,,,,,,,,,,-1,-1,850,0,stim,poldrack-single-stim,188,299056,0.0-6.0-128.0,go_nogo_deval,442,,<img class = center src='/static/experiments/go_nogo_deval/images/green_pentagon.png'></img>,32,850,test,green_pentagon,nogo2,-1,42,0,,,,,,,-1,-1,1400,0,ITI,poldrack-single-stim,189,300458,0.0-6.0-129.0,go_nogo_deval,442,,<div></div>,32,1400,test,,,,,,,,,,,,-1,-1,500,0,fixation,poldrack-single-stim,190,300960,0.0-6.0-130.0,go_nogo_deval,442,,<div class = centerbox><div class = fixation>+</div></div>,none,500,test,,,,,,,,,,,,-1,-1,850,0,stim,poldrack-single-stim,191,301812,0.0-6.0-131.0,go_nogo_deval,442,,<img class = center src='/static/experiments/go_nogo_deval/images/green_pentagon.png'></img>,32,850,test,green_pentagon,nogo2,-1,43,0,,,,,,,-1,-1,1400,0,ITI,poldrack-single-stim,192,303213,0.0-6.0-132.0,go_nogo_deval,442,,<div></div>,32,1400,test,,,,,,,,,,,,-1,-1,500,0,fixation,poldrack-single-stim,193,303714,0.0-6.0-133.0,go_nogo_deval,442,,<div class = centerbox><div class = fixation>+</div></div>,none,500,test,,,,,,,,,,,,-1,-1,850,0,stim,poldrack-single-stim,194,304565,0.0-6.0-134.0,go_nogo_deval,442,,<img class = center src='/static/experiments/go_nogo_deval/images/green_pentagon.png'></img>,32,850,test,green_pentagon,nogo2,-1,44,0,,,,,,,-1,-1,1400,0,ITI,poldrack-single-stim,195,305966,0.0-6.0-135.0,go_nogo_deval,442,,<div></div>,32,1400,test,,,,,,,,,,,,-1,-1,500,0,fixation,poldrack-single-stim,196,306468,0.0-6.0-136.0,go_nogo_deval,442,,<div class = centerbox><div class = fixation>+</div></div>,none,500,test,,,,,,,,,,,,-1,-1,850,0,stim,poldrack-single-stim,197,307320,0.0-6.0-137.0,go_nogo_deval,442,,<img class = center src='/static/experiments/go_nogo_deval/images/green_pentagon.png'></img>,32,850,test,green_pentagon,nogo2,-1,45,0,,,,,,,-1,-1,1400,0,ITI,poldrack-single-stim,198,308721,0.0-6.0-138.0,go_nogo_deval,442,,<div></div>,32,1400,test,,,,,,,,,,,,-1,-1,500,0,fixation,poldrack-single-stim,199,309223,0.0-6.0-139.0,go_nogo_deval,442,,<div class = centerbox><div class = fixation>+</div></div>,none,500,test,,,,,,,,,,,,429,32,850,0,stim,poldrack-single-stim,200,310074,0.0-6.0-140.0,go_nogo_deval,442,,<img class = center src='/static/experiments/go_nogo_deval/images/blue_triangle.png'></img>,32,850,test,blue_triangle,go1,32,46,0,,,,,,,-1,-1,1400,0,ITI,poldrack-single-stim,201,311476,0.0-6.0-141.0,go_nogo_deval,442,,<div></div>,32,1400,test,,,,,,,,,,,,-1,-1,500,0,fixation,poldrack-single-stim,202,311977,0.0-6.0-142.0,go_nogo_deval,442,,<div class = centerbox><div class = fixation>+</div></div>,none,500,test,,,,,,,,,,,,666,32,850,0,stim,poldrack-single-stim,203,312829,0.0-6.0-143.0,go_nogo_deval,442,,<img class = center src='/static/experiments/go_nogo_deval/images/blue_triangle.png'></img>,32,850,test,blue_triangle,go1,32,47,0,,,,,,,-1,-1,1400,0,ITI,poldrack-single-stim,204,314230,0.0-6.0-144.0,go_nogo_deval,442,,<div></div>,32,1400,test,,,,,,,,,,,,5026,13,5026,0,practice-no-stop-feedback,poldrack-single-stim,205,319259,0.0-6.1-0.1,go_nogo_deval,442,,<div class = centerbox><p class = block-text><br>Please take this time to read your feedback and to take a short break! Press enter to continue</p><p class = block-text><strong>Average reaction time:  473 ms. Accuracy: 100%</strong></p></div>,13,5026,,,,,,,,,,,,,-1,-1,500,0,fixation,poldrack-single-stim,206,319761,0.0-6.1-1.1,go_nogo_deval,442,,<div class = centerbox><div class = fixation>+</div></div>,none,500,test,,,,,,,,,,,,-1,-1,850,0,stim,poldrack-single-stim,207,320613,0.0-6.1-2.1,go_nogo_deval,442,,<img class = center src='/static/experiments/go_nogo_deval/images/green_pentagon.png'></img>,32,850,test,green_pentagon,nogo2,-1,0,1,,,,,,,-1,-1,1400,0,ITI,poldrack-single-stim,208,322014,0.0-6.1-3.1,go_nogo_deval,442,,<div></div>,32,1400,test,,,,,,,,,,,,-1,-1,500,0,fixation,poldrack-single-stim,209,322516,0.0-6.1-4.1,go_nogo_deval,442,,<div class = centerbox><div class = fixation>+</div></div>,none,500,test,,,,,,,,,,,,-1,-1,850,0,stim,poldrack-single-stim,210,323368,0.0-6.1-5.1,go_nogo_deval,442,,<img class = center src='/static/experiments/go_nogo_deval/images/red_circle.png'></img>,32,850,test,red_circle,nogo1,-1,1,1,,,,,,,-1,-1,1400,0,ITI,poldrack-single-stim,211,324770,0.0-6.1-6.1,go_nogo_deval,442,,<div></div>,32,1400,test,,,,,,,,,,,,-1,-1,500,0,fixation,poldrack-single-stim,212,325271,0.0-6.1-7.1,go_nogo_deval,442,,<div class = centerbox><div class = fixation>+</div></div>,none,500,test,,,,,,,,,,,,434,32,850,0,stim,poldrack-single-stim,213,326123,0.0-6.1-8.1,go_nogo_deval,442,,<img class = center src='/static/experiments/go_nogo_deval/images/purple_rhombus.png'></img>,32,850,test,purple_rhombus,go2,32,2,1,,,,,,,-1,-1,1400,0,ITI,poldrack-single-stim,214,327525,0.0-6.1-9.1,go_nogo_deval,442,,<div></div>,32,1400,test,,,,,,,,,,,,-1,-1,500,0,fixation,poldrack-single-stim,215,328027,0.0-6.1-10.1,go_nogo_deval,442,,<div class = centerbox><div class = fixation>+</div></div>,none,500,test,,,,,,,,,,,,401,32,850,0,stim,poldrack-single-stim,216,328879,0.0-6.1-11.1,go_nogo_deval,442,,<img class = center src='/static/experiments/go_nogo_deval/images/blue_triangle.png'></img>,32,850,test,blue_triangle,go1,32,3,1,,,,,,,-1,-1,1400,0,ITI,poldrack-single-stim,217,330280,0.0-6.1-12.1,go_nogo_deval,442,,<div></div>,32,1400,test,,,,,,,,,,,,-1,-1,500,0,fixation,poldrack-single-stim,218,330782,0.0-6.1-13.1,go_nogo_deval,442,,<div class = centerbox><div class = fixation>+</div></div>,none,500,test,,,,,,,,,,,,-1,-1,850,0,stim,poldrack-single-stim,219,331633,0.0-6.1-14.1,go_nogo_deval,442,,<img class = center src='/static/experiments/go_nogo_deval/images/green_pentagon.png'></img>,32,850,test,green_pentagon,nogo2,-1,4,1,,,,,,,-1,-1,1400,0,ITI,poldrack-single-stim,220,333034,0.0-6.1-15.1,go_nogo_deval,442,,<div></div>,32,1400,test,,,,,,,,,,,,-1,-1,500,0,fixation,poldrack-single-stim,221,333535,0.0-6.1-16.1,go_nogo_deval,442,,<div class = centerbox><div class = fixation>+</div></div>,none,500,test,,,,,,,,,,,,506,32,850,0,stim,poldrack-single-stim,222,334387,0.0-6.1-17.1,go_nogo_deval,442,,<img class = center src='/static/experiments/go_nogo_deval/images/purple_rhombus.png'></img>,32,850,test,purple_rhombus,go2,32,5,1,,,,,,,-1,-1,1400,0,ITI,poldrack-single-stim,223,335788,0.0-6.1-18.1,go_nogo_deval,442,,<div></div>,32,1400,test,,,,,,,,,,,,-1,-1,500,0,fixation,poldrack-single-stim,224,336290,0.0-6.1-19.1,go_nogo_deval,442,,<div class = centerbox><div class = fixation>+</div></div>,none,500,test,,,,,,,,,,,,-1,-1,850,0,stim,poldrack-single-stim,225,337141,0.0-6.1-20.1,go_nogo_deval,442,,<img class = center src='/static/experiments/go_nogo_deval/images/red_circle.png'></img>,32,850,test,red_circle,nogo1,-1,6,1,,,,,,,-1,-1,1400,0,ITI,poldrack-single-stim,226,338542,0.0-6.1-21.1,go_nogo_deval,442,,<div></div>,32,1400,test,,,,,,,,,,,,-1,-1,500,0,fixation,poldrack-single-stim,227,339044,0.0-6.1-22.1,go_nogo_deval,442,,<div class = centerbox><div class = fixation>+</div></div>,none,500,test,,,,,,,,,,,,387,32,850,0,stim,poldrack-single-stim,228,339895,0.0-6.1-23.1,go_nogo_deval,442,,<img class = center src='/static/experiments/go_nogo_deval/images/blue_triangle.png'></img>,32,850,test,blue_triangle,go1,32,7,1,,,,,,,-1,-1,1400,0,ITI,poldrack-single-stim,229,341296,0.0-6.1-24.1,go_nogo_deval,442,,<div></div>,32,1400,test,,,,,,,,,,,,-1,-1,500,0,fixation,poldrack-single-stim,230,341798,0.0-6.1-25.1,go_nogo_deval,442,,<div class = centerbox><div class = fixation>+</div></div>,none,500,test,,,,,,,,,,,,-1,-1,850,0,stim,poldrack-single-stim,231,342650,0.0-6.1-26.1,go_nogo_deval,442,,<img class = center src='/static/experiments/go_nogo_deval/images/red_circle.png'></img>,32,850,test,red_circle,nogo1,-1,8,1,,,,,,,-1,-1,1400,0,ITI,poldrack-single-stim,232,344052,0.0-6.1-27.1,go_nogo_deval,442,,<div></div>,32,1400,test,,,,,,,,,,,,-1,-1,500,0,fixation,poldrack-single-stim,233,344553,0.0-6.1-28.1,go_nogo_deval,442,,<div class = centerbox><div class = fixation>+</div></div>,none,500,test,,,,,,,,,,,,457,32,850,0,stim,poldrack-single-stim,234,345405,0.0-6.1-29.1,go_nogo_deval,442,,<img class = center src='/static/experiments/go_nogo_deval/images/purple_rhombus.png'></img>,32,850,test,purple_rhombus,go2,32,9,1,,,,,,,-1,-1,1400,0,ITI,poldrack-single-stim,235,346806,0.0-6.1-30.1,go_nogo_deval,442,,<div></div>,32,1400,test,,,,,,,,,,,,-1,-1,500,0,fixation,poldrack-single-stim,236,347308,0.0-6.1-31.1,go_nogo_deval,442,,<div class = centerbox><div class = fixation>+</div></div>,none,500,test,,,,,,,,,,,,425,32,850,0,stim,poldrack-single-stim,237,348159,0.0-6.1-32.1,go_nogo_deval,442,,<img class = center src='/static/experiments/go_nogo_deval/images/purple_rhombus.png'></img>,32,850,test,purple_rhombus,go2,32,10,1,,,,,,,-1,-1,1400,0,ITI,poldrack-single-stim,238,349560,0.0-6.1-33.1,go_nogo_deval,442,,<div></div>,32,1400,test,,,,,,,,,,,,-1,-1,500,0,fixation,poldrack-single-stim,239,350061,0.0-6.1-34.1,go_nogo_deval,442,,<div class = centerbox><div class = fixation>+</div></div>,none,500,test,,,,,,,,,,,,450,32,850,0,stim,poldrack-single-stim,240,350913,0.0-6.1-35.1,go_nogo_deval,442,,<img class = center src='/static/experiments/go_nogo_deval/images/blue_triangle.png'></img>,32,850,test,blue_triangle,go1,32,11,1,,,,,,,-1,-1,1400,0,ITI,poldrack-single-stim,241,352315,0.0-6.1-36.1,go_nogo_deval,442,,<div></div>,32,1400,test,,,,,,,,,,,,-1,-1,500,0,fixation,poldrack-single-stim,242,352817,0.0-6.1-37.1,go_nogo_deval,442,,<div class = centerbox><div class = fixation>+</div></div>,none,500,test,,,,,,,,,,,,-1,-1,850,0,stim,poldrack-single-stim,243,353667,0.0-6.1-38.1,go_nogo_deval,442,,<img class = center src='/static/experiments/go_nogo_deval/images/red_circle.png'></img>,32,850,test,red_circle,nogo1,-1,12,1,,,,,,,-1,-1,1400,0,ITI,poldrack-single-stim,244,355068,0.0-6.1-39.1,go_nogo_deval,442,,<div></div>,32,1400,test,,,,,,,,,,,,-1,-1,500,0,fixation,poldrack-single-stim,245,355570,0.0-6.1-40.1,go_nogo_deval,442,,<div class = centerbox><div class = fixation>+</div></div>,none,500,test,,,,,,,,,,,,-1,-1,850,0,stim,poldrack-single-stim,246,356422,0.0-6.1-41.1,go_nogo_deval,442,,<img class = center src='/static/experiments/go_nogo_deval/images/green_pentagon.png'></img>,32,850,test,green_pentagon,nogo2,-1,13,1,,,,,,,-1,-1,1400,0,ITI,poldrack-single-stim,247,357823,0.0-6.1-42.1,go_nogo_deval,442,,<div></div>,32,1400,test,,,,,,,,,,,,-1,-1,500,0,fixation,poldrack-single-stim,248,358325,0.0-6.1-43.1,go_nogo_deval,442,,<div class = centerbox><div class = fixation>+</div></div>,none,500,test,,,,,,,,,,,,-1,-1,850,0,stim,poldrack-single-stim,249,359176,0.0-6.1-44.1,go_nogo_deval,442,,<img class = center src='/static/experiments/go_nogo_deval/images/green_pentagon.png'></img>,32,850,test,green_pentagon,nogo2,-1,14,1,,,,,,,-1,-1,1400,0,ITI,poldrack-single-stim,250,360578,0.0-6.1-45.1,go_nogo_deval,442,,<div></div>,32,1400,test,,,,,,,,,,,,-1,-1,500,0,fixation,poldrack-single-stim,251,361080,0.0-6.1-46.1,go_nogo_deval,442,,<div class = centerbox><div class = fixation>+</div></div>,none,500,test,,,,,,,,,,,,412,32,850,0,stim,poldrack-single-stim,252,361932,0.0-6.1-47.1,go_nogo_deval,442,,<img class = center src='/static/experiments/go_nogo_deval/images/purple_rhombus.png'></img>,32,850,test,purple_rhombus,go2,32,15,1,,,,,,,-1,-1,1400,0,ITI,poldrack-single-stim,253,363333,0.0-6.1-48.1,go_nogo_deval,442,,<div></div>,32,1400,test,,,,,,,,,,,,-1,-1,500,0,fixation,poldrack-single-stim,254,363835,0.0-6.1-49.1,go_nogo_deval,442,,<div class = centerbox><div class = fixation>+</div></div>,none,500,test,,,,,,,,,,,,401,32,850,0,stim,poldrack-single-stim,255,364687,0.0-6.1-50.1,go_nogo_deval,442,,<img class = center src='/static/experiments/go_nogo_deval/images/blue_triangle.png'></img>,32,850,test,blue_triangle,go1,32,16,1,,,,,,,-1,-1,1400,0,ITI,poldrack-single-stim,256,366089,0.0-6.1-51.1,go_nogo_deval,442,,<div></div>,32,1400,test,,,,,,,,,,,,-1,-1,500,0,fixation,poldrack-single-stim,257,366590,0.0-6.1-52.1,go_nogo_deval,442,,<div class = centerbox><div class = fixation>+</div></div>,none,500,test,,,,,,,,,,,,415,32,850,0,stim,poldrack-single-stim,258,367442,0.0-6.1-53.1,go_nogo_deval,442,,<img class = center src='/static/experiments/go_nogo_deval/images/blue_triangle.png'></img>,32,850,test,blue_triangle,go1,32,17,1,,,,,,,-1,-1,1400,0,ITI,poldrack-single-stim,259,368844,0.0-6.1-54.1,go_nogo_deval,442,,<div></div>,32,1400,test,,,,,,,,,,,,-1,-1,500,0,fixation,poldrack-single-stim,260,369345,0.0-6.1-55.1,go_nogo_deval,442,,<div class = centerbox><div class = fixation>+</div></div>,none,500,test,,,,,,,,,,,,471,32,850,0,stim,poldrack-single-stim,261,370197,0.0-6.1-56.1,go_nogo_deval,442,,<img class = center src='/static/experiments/go_nogo_deval/images/purple_rhombus.png'></img>,32,850,test,purple_rhombus,go2,32,18,1,,,,,,,-1,-1,1400,0,ITI,poldrack-single-stim,262,371599,0.0-6.1-57.1,go_nogo_deval,442,,<div></div>,32,1400,test,,,,,,,,,,,,-1,-1,500,0,fixation,poldrack-single-stim,263,372100,0.0-6.1-58.1,go_nogo_deval,442,,<div class = centerbox><div class = fixation>+</div></div>,none,500,test,,,,,,,,,,,,383,32,850,0,stim,poldrack-single-stim,264,372952,0.0-6.1-59.1,go_nogo_deval,442,,<img class = center src='/static/experiments/go_nogo_deval/images/purple_rhombus.png'></img>,32,850,test,purple_rhombus,go2,32,19,1,,,,,,,-1,-1,1400,0,ITI,poldrack-single-stim,265,374354,0.0-6.1-60.1,go_nogo_deval,442,,<div></div>,32,1400,test,,,,,,,,,,,,-1,-1,500,0,fixation,poldrack-single-stim,266,374854,0.0-6.1-61.1,go_nogo_deval,442,,<div class = centerbox><div class = fixation>+</div></div>,none,500,test,,,,,,,,,,,,-1,-1,850,0,stim,poldrack-single-stim,267,375705,0.0-6.1-62.1,go_nogo_deval,442,,<img class = center src='/static/experiments/go_nogo_deval/images/red_circle.png'></img>,32,850,test,red_circle,nogo1,-1,20,1,,,,,,,-1,-1,1400,0,ITI,poldrack-single-stim,268,377107,0.0-6.1-63.1,go_nogo_deval,442,,<div></div>,32,1400,test,,,,,,,,,,,,-1,-1,500,0,fixation,poldrack-single-stim,269,377608,0.0-6.1-64.1,go_nogo_deval,442,,<div class = centerbox><div class = fixation>+</div></div>,none,500,test,,,,,,,,,,,,511,32,850,0,stim,poldrack-single-stim,270,378459,0.0-6.1-65.1,go_nogo_deval,442,,<img class = center src='/static/experiments/go_nogo_deval/images/blue_triangle.png'></img>,32,850,test,blue_triangle,go1,32,21,1,,,,,,,-1,-1,1400,0,ITI,poldrack-single-stim,271,379860,0.0-6.1-66.1,go_nogo_deval,442,,<div></div>,32,1400,test,,,,,,,,,,,,-1,-1,500,0,fixation,poldrack-single-stim,272,380362,0.0-6.1-67.1,go_nogo_deval,442,,<div class = centerbox><div class = fixation>+</div></div>,none,500,test,,,,,,,,,,,,446,32,850,0,stim,poldrack-single-stim,273,381214,0.0-6.1-68.1,go_nogo_deval,442,,<img class = center src='/static/experiments/go_nogo_deval/images/blue_triangle.png'></img>,32,850,test,blue_triangle,go1,32,22,1,,,,,,,-1,-1,1400,0,ITI,poldrack-single-stim,274,382615,0.0-6.1-69.1,go_nogo_deval,442,,<div></div>,32,1400,test,,,,,,,,,,,,-1,-1,500,0,fixation,poldrack-single-stim,275,383117,0.0-6.1-70.1,go_nogo_deval,442,,<div class = centerbox><div class = fixation>+</div></div>,none,500,test,,,,,,,,,,,,492,32,850,0,stim,poldrack-single-stim,276,383968,0.0-6.1-71.1,go_nogo_deval,442,,<img class = center src='/static/experiments/go_nogo_deval/images/purple_rhombus.png'></img>,32,850,test,purple_rhombus,go2,32,23,1,,,,,,,-1,-1,1400,0,ITI,poldrack-single-stim,277,385370,0.0-6.1-72.1,go_nogo_deval,442,,<div></div>,32,1400,test,,,,,,,,,,,,-1,-1,500,0,fixation,poldrack-single-stim,278,385872,0.0-6.1-73.1,go_nogo_deval,442,,<div class = centerbox><div class = fixation>+</div></div>,none,500,test,,,,,,,,,,,,-1,-1,850,0,stim,poldrack-single-stim,279,386723,0.0-6.1-74.1,go_nogo_deval,442,,<img class = center src='/static/experiments/go_nogo_deval/images/green_pentagon.png'></img>,32,850,test,green_pentagon,nogo2,-1,24,1,,,,,,,-1,-1,1400,0,ITI,poldrack-single-stim,280,388124,0.0-6.1-75.1,go_nogo_deval,442,,<div></div>,32,1400,test,,,,,,,,,,,,-1,-1,500,0,fixation,poldrack-single-stim,281,388626,0.0-6.1-76.1,go_nogo_deval,442,,<div class = centerbox><div class = fixation>+</div></div>,none,500,test,,,,,,,,,,,,496,32,850,0,stim,poldrack-single-stim,282,389477,0.0-6.1-77.1,go_nogo_deval,442,,<img class = center src='/static/experiments/go_nogo_deval/images/blue_triangle.png'></img>,32,850,test,blue_triangle,go1,32,25,1,,,,,,,-1,-1,1400,0,ITI,poldrack-single-stim,283,390879,0.0-6.1-78.1,go_nogo_deval,442,,<div></div>,32,1400,test,,,,,,,,,,,,-1,-1,500,0,fixation,poldrack-single-stim,284,391380,0.0-6.1-79.1,go_nogo_deval,442,,<div class = centerbox><div class = fixation>+</div></div>,none,500,test,,,,,,,,,,,,441,32,850,0,stim,poldrack-single-stim,285,392232,0.0-6.1-80.1,go_nogo_deval,442,,<img class = center src='/static/experiments/go_nogo_deval/images/blue_triangle.png'></img>,32,850,test,blue_triangle,go1,32,26,1,,,,,,,-1,-1,1400,0,ITI,poldrack-single-stim,286,393634,0.0-6.1-81.1,go_nogo_deval,442,,<div></div>,32,1400,test,,,,,,,,,,,,-1,-1,500,0,fixation,poldrack-single-stim,287,394136,0.0-6.1-82.1,go_nogo_deval,442,,<div class = centerbox><div class = fixation>+</div></div>,none,500,test,,,,,,,,,,,,-1,-1,850,0,stim,poldrack-single-stim,288,394988,0.0-6.1-83.1,go_nogo_deval,442,,<img class = center src='/static/experiments/go_nogo_deval/images/red_circle.png'></img>,32,850,test,red_circle,nogo1,-1,27,1,,,,,,,-1,-1,1400,0,ITI,poldrack-single-stim,289,396390,0.0-6.1-84.1,go_nogo_deval,442,,<div></div>,32,1400,test,,,,,,,,,,,,-1,-1,500,0,fixation,poldrack-single-stim,290,396891,0.0-6.1-85.1,go_nogo_deval,442,,<div class = centerbox><div class = fixation>+</div></div>,none,500,test,,,,,,,,,,,,-1,-1,850,0,stim,poldrack-single-stim,291,397742,0.0-6.1-86.1,go_nogo_deval,442,,<img class = center src='/static/experiments/go_nogo_deval/images/red_circle.png'></img>,32,850,test,red_circle,nogo1,-1,28,1,,,,,,,-1,-1,1400,0,ITI,poldrack-single-stim,292,399144,0.0-6.1-87.1,go_nogo_deval,442,,<div></div>,32,1400,test,,,,,,,,,,,,-1,-1,500,0,fixation,poldrack-single-stim,293,399646,0.0-6.1-88.1,go_nogo_deval,442,,<div class = centerbox><div class = fixation>+</div></div>,none,500,test,,,,,,,,,,,,401,32,850,0,stim,poldrack-single-stim,294,400497,0.0-6.1-89.1,go_nogo_deval,442,,<img class = center src='/static/experiments/go_nogo_deval/images/blue_triangle.png'></img>,32,850,test,blue_triangle,go1,32,29,1,,,,,,,-1,-1,1400,0,ITI,poldrack-single-stim,295,401899,0.0-6.1-90.1,go_nogo_deval,442,,<div></div>,32,1400,test,,,,,,,,,,,,-1,-1,500,0,fixation,poldrack-single-stim,296,402400,0.0-6.1-91.1,go_nogo_deval,442,,<div class = centerbox><div class = fixation>+</div></div>,none,500,test,,,,,,,,,,,,480,32,850,0,stim,poldrack-single-stim,297,403251,0.0-6.1-92.1,go_nogo_deval,442,,<img class = center src='/static/experiments/go_nogo_deval/images/purple_rhombus.png'></img>,32,850,test,purple_rhombus,go2,32,30,1,,,,,,,-1,-1,1400,0,ITI,poldrack-single-stim,298,404653,0.0-6.1-93.1,go_nogo_deval,442,,<div></div>,32,1400,test,,,,,,,,,,,,-1,-1,500,0,fixation,poldrack-single-stim,299,405155,0.0-6.1-94.1,go_nogo_deval,442,,<div class = centerbox><div class = fixation>+</div></div>,none,500,test,,,,,,,,,,,,404,32,850,0,stim,poldrack-single-stim,300,406007,0.0-6.1-95.1,go_nogo_deval,442,,<img class = center src='/static/experiments/go_nogo_deval/images/blue_triangle.png'></img>,32,850,test,blue_triangle,go1,32,31,1,,,,,,,-1,-1,1400,0,ITI,poldrack-single-stim,301,407409,0.0-6.1-96.1,go_nogo_deval,442,,<div></div>,32,1400,test,,,,,,,,,,,,-1,-1,500,0,fixation,poldrack-single-stim,302,407911,0.0-6.1-97.1,go_nogo_deval,442,,<div class = centerbox><div class = fixation>+</div></div>,none,500,test,,,,,,,,,,,,-1,-1,850,0,stim,poldrack-single-stim,303,408763,0.0-6.1-98.1,go_nogo_deval,442,,<img class = center src='/static/experiments/go_nogo_deval/images/red_circle.png'></img>,32,850,test,red_circle,nogo1,-1,32,1,,,,,,,-1,-1,1400,0,ITI,poldrack-single-stim,304,410164,0.0-6.1-99.1,go_nogo_deval,442,,<div></div>,32,1400,test,,,,,,,,,,,,-1,-1,500,0,fixation,poldrack-single-stim,305,410666,0.0-6.1-100.1,go_nogo_deval,442,,<div class = centerbox><div class = fixation>+</div></div>,none,500,test,,,,,,,,,,,,382,32,850,0,stim,poldrack-single-stim,306,411517,0.0-6.1-101.1,go_nogo_deval,442,,<img class = center src='/static/experiments/go_nogo_deval/images/purple_rhombus.png'></img>,32,850,test,purple_rhombus,go2,32,33,1,,,,,,,-1,-1,1400,0,ITI,poldrack-single-stim,307,412919,0.0-6.1-102.1,go_nogo_deval,442,,<div></div>,32,1400,test,,,,,,,,,,,,-1,-1,500,0,fixation,poldrack-single-stim,308,413421,0.0-6.1-103.1,go_nogo_deval,442,,<div class = centerbox><div class = fixation>+</div></div>,none,500,test,,,,,,,,,,,,372,32,850,0,stim,poldrack-single-stim,309,414272,0.0-6.1-104.1,go_nogo_deval,442,,<img class = center src='/static/experiments/go_nogo_deval/images/purple_rhombus.png'></img>,32,850,test,purple_rhombus,go2,32,34,1,,,,,,,-1,-1,1400,0,ITI,poldrack-single-stim,310,415673,0.0-6.1-105.1,go_nogo_deval,442,,<div></div>,32,1400,test,,,,,,,,,,,,-1,-1,500,0,fixation,poldrack-single-stim,311,416175,0.0-6.1-106.1,go_nogo_deval,442,,<div class = centerbox><div class = fixation>+</div></div>,none,500,test,,,,,,,,,,,,397,32,850,0,stim,poldrack-single-stim,312,417026,0.0-6.1-107.1,go_nogo_deval,442,,<img class = center src='/static/experiments/go_nogo_deval/images/blue_triangle.png'></img>,32,850,test,blue_triangle,go1,32,35,1,,,,,,,-1,-1,1400,0,ITI,poldrack-single-stim,313,418427,0.0-6.1-108.1,go_nogo_deval,442,,<div></div>,32,1400,test,,,,,,,,,,,,-1,-1,500,0,fixation,poldrack-single-stim,314,418929,0.0-6.1-109.1,go_nogo_deval,442,,<div class = centerbox><div class = fixation>+</div></div>,none,500,test,,,,,,,,,,,,-1,-1,850,0,stim,poldrack-single-stim,315,419781,0.0-6.1-110.1,go_nogo_deval,442,,<img class = center src='/static/experiments/go_nogo_deval/images/green_pentagon.png'></img>,32,850,test,green_pentagon,nogo2,-1,36,1,,,,,,,-1,-1,1400,0,ITI,poldrack-single-stim,316,421182,0.0-6.1-111.1,go_nogo_deval,442,,<div></div>,32,1400,test,,,,,,,,,,,,-1,-1,500,0,fixation,poldrack-single-stim,317,421684,0.0-6.1-112.1,go_nogo_deval,442,,<div class = centerbox><div class = fixation>+</div></div>,none,500,test,,,,,,,,,,,,424,32,850,0,stim,poldrack-single-stim,318,422535,0.0-6.1-113.1,go_nogo_deval,442,,<img class = center src='/static/experiments/go_nogo_deval/images/purple_rhombus.png'></img>,32,850,test,purple_rhombus,go2,32,37,1,,,,,,,-1,-1,1400,0,ITI,poldrack-single-stim,319,423936,0.0-6.1-114.1,go_nogo_deval,442,,<div></div>,32,1400,test,,,,,,,,,,,,-1,-1,500,0,fixation,poldrack-single-stim,320,424437,0.0-6.1-115.1,go_nogo_deval,442,,<div class = centerbox><div class = fixation>+</div></div>,none,500,test,,,,,,,,,,,,416,32,850,0,stim,poldrack-single-stim,321,425289,0.0-6.1-116.1,go_nogo_deval,442,,<img class = center src='/static/experiments/go_nogo_deval/images/blue_triangle.png'></img>,32,850,test,blue_triangle,go1,32,38,1,,,,,,,-1,-1,1400,0,ITI,poldrack-single-stim,322,426691,0.0-6.1-117.1,go_nogo_deval,442,,<div></div>,32,1400,test,,,,,,,,,,,,-1,-1,500,0,fixation,poldrack-single-stim,323,427192,0.0-6.1-118.1,go_nogo_deval,442,,<div class = centerbox><div class = fixation>+</div></div>,none,500,test,,,,,,,,,,,,393,32,850,0,stim,poldrack-single-stim,324,428044,0.0-6.1-119.1,go_nogo_deval,442,,<img class = center src='/static/experiments/go_nogo_deval/images/purple_rhombus.png'></img>,32,850,test,purple_rhombus,go2,32,39,1,,,,,,,-1,-1,1400,0,ITI,poldrack-single-stim,325,429446,0.0-6.1-120.1,go_nogo_deval,442,,<div></div>,32,1400,test,,,,,,,,,,,,-1,-1,500,0,fixation,poldrack-single-stim,326,429947,0.0-6.1-121.1,go_nogo_deval,442,,<div class = centerbox><div class = fixation>+</div></div>,none,500,test,,,,,,,,,,,,428,32,850,0,stim,poldrack-single-stim,327,430799,0.0-6.1-122.1,go_nogo_deval,442,,<img class = center src='/static/experiments/go_nogo_deval/images/purple_rhombus.png'></img>,32,850,test,purple_rhombus,go2,32,40,1,,,,,,,-1,-1,1400,0,ITI,poldrack-single-stim,328,432201,0.0-6.1-123.1,go_nogo_deval,442,,<div></div>,32,1400,test,,,,,,,,,,,,-1,-1,500,0,fixation,poldrack-single-stim,329,432703,0.0-6.1-124.1,go_nogo_deval,442,,<div class = centerbox><div class = fixation>+</div></div>,none,500,test,,,,,,,,,,,,-1,-1,850,0,stim,poldrack-single-stim,330,433555,0.0-6.1-125.1,go_nogo_deval,442,,<img class = center src='/static/experiments/go_nogo_deval/images/green_pentagon.png'></img>,32,850,test,green_pentagon,nogo2,-1,41,1,,,,,,,-1,-1,1400,0,ITI,poldrack-single-stim,331,434956,0.0-6.1-126.1,go_nogo_deval,442,,<div></div>,32,1400,test,,,,,,,,,,,,-1,-1,500,0,fixation,poldrack-single-stim,332,435457,0.0-6.1-127.1,go_nogo_deval,442,,<div class = centerbox><div class = fixation>+</div></div>,none,500,test,,,,,,,,,,,,454,32,850,0,stim,poldrack-single-stim,333,436309,0.0-6.1-128.1,go_nogo_deval,442,,<img class = center src='/static/experiments/go_nogo_deval/images/blue_triangle.png'></img>,32,850,test,blue_triangle,go1,32,42,1,,,,,,,-1,-1,1400,0,ITI,poldrack-single-stim,334,437711,0.0-6.1-129.1,go_nogo_deval,442,,<div></div>,32,1400,test,,,,,,,,,,,,-1,-1,500,0,fixation,poldrack-single-stim,335,438212,0.0-6.1-130.1,go_nogo_deval,442,,<div class = centerbox><div class = fixation>+</div></div>,none,500,test,,,,,,,,,,,,411,32,850,0,stim,poldrack-single-stim,336,439064,0.0-6.1-131.1,go_nogo_deval,442,,<img class = center src='/static/experiments/go_nogo_deval/images/purple_rhombus.png'></img>,32,850,test,purple_rhombus,go2,32,43,1,,,,,,,-1,-1,1400,0,ITI,poldrack-single-stim,337,440465,0.0-6.1-132.1,go_nogo_deval,442,,<div></div>,32,1400,test,,,,,,,,,,,,-1,-1,500,0,fixation,poldrack-single-stim,338,440967,0.0-6.1-133.1,go_nogo_deval,442,,<div class = centerbox><div class = fixation>+</div></div>,none,500,test,,,,,,,,,,,,412,32,850,0,stim,poldrack-single-stim,339,441818,0.0-6.1-134.1,go_nogo_deval,442,,<img class = center src='/static/experiments/go_nogo_deval/images/blue_triangle.png'></img>,32,850,test,blue_triangle,go1,32,44,1,,,,,,,-1,-1,1400,0,ITI,poldrack-single-stim,340,443219,0.0-6.1-135.1,go_nogo_deval,442,,<div></div>,32,1400,test,,,,,,,,,,,,-1,-1,500,0,fixation,poldrack-single-stim,341,443721,0.0-6.1-136.1,go_nogo_deval,442,,<div class = centerbox><div class = fixation>+</div></div>,none,500,test,,,,,,,,,,,,323,32,850,0,stim,poldrack-single-stim,342,444573,0.0-6.1-137.1,go_nogo_deval,442,,<img class = center src='/static/experiments/go_nogo_deval/images/blue_triangle.png'></img>,32,850,test,blue_triangle,go1,32,45,1,,,,,,,-1,-1,1400,0,ITI,poldrack-single-stim,343,445974,0.0-6.1-138.1,go_nogo_deval,442,,<div></div>,32,1400,test,,,,,,,,,,,,-1,-1,500,0,fixation,poldrack-single-stim,344,446476,0.0-6.1-139.1,go_nogo_deval,442,,<div class = centerbox><div class = fixation>+</div></div>,none,500,test,,,,,,,,,,,,-1,-1,850,0,stim,poldrack-single-stim,345,447327,0.0-6.1-140.1,go_nogo_deval,442,,<img class = center src='/static/experiments/go_nogo_deval/images/green_pentagon.png'></img>,32,850,test,green_pentagon,nogo2,-1,46,1,,,,,,,-1,-1,1400,0,ITI,poldrack-single-stim,346,448728,0.0-6.1-141.1,go_nogo_deval,442,,<div></div>,32,1400,test,,,,,,,,,,,,-1,-1,500,0,fixation,poldrack-single-stim,347,449230,0.0-6.1-142.1,go_nogo_deval,442,,<div class = centerbox><div class = fixation>+</div></div>,none,500,test,,,,,,,,,,,,428,32,850,0,stim,poldrack-single-stim,348,450082,0.0-6.1-143.1,go_nogo_deval,442,,<img class = center src='/static/experiments/go_nogo_deval/images/purple_rhombus.png'></img>,32,850,test,purple_rhombus,go2,32,47,1,,,,,,,-1,-1,1400,0,ITI,poldrack-single-stim,349,451483,0.0-6.1-144.1,go_nogo_deval,442,,<div></div>,32,1400,test,,,,,,,,,,,,3461,13,3461,0,practice-no-stop-feedback,poldrack-single-stim,350,454947,0.0-6.2-0.2,go_nogo_deval,442,,<div class = centerbox><p class = block-text><br>Please take this time to read your feedback and to take a short break! Press enter to continue</p><p class = block-text><strong>Average reaction time:  427 ms. Accuracy: 100%</strong></p></div>,13,3461,,,,,,,,,,,,,-1,-1,500,0,fixation,poldrack-single-stim,351,455448,0.0-6.2-1.2,go_nogo_deval,442,,<div class = centerbox><div class = fixation>+</div></div>,none,500,test,,,,,,,,,,,,-1,-1,850,0,stim,poldrack-single-stim,352,456300,0.0-6.2-2.2,go_nogo_deval,442,,<img class = center src='/static/experiments/go_nogo_deval/images/red_circle.png'></img>,32,850,test,red_circle,nogo1,-1,0,2,,,,,,,-1,-1,1400,0,ITI,poldrack-single-stim,353,457702,0.0-6.2-3.2,go_nogo_deval,442,,<div></div>,32,1400,test,,,,,,,,,,,,-1,-1,500,0,fixation,poldrack-single-stim,354,458203,0.0-6.2-4.2,go_nogo_deval,442,,<div class = centerbox><div class = fixation>+</div></div>,none,500,test,,,,,,,,,,,,432,32,850,0,stim,poldrack-single-stim,355,459055,0.0-6.2-5.2,go_nogo_deval,442,,<img class = center src='/static/experiments/go_nogo_deval/images/purple_rhombus.png'></img>,32,850,test,purple_rhombus,go2,32,1,2,,,,,,,-1,-1,1400,0,ITI,poldrack-single-stim,356,460457,0.0-6.2-6.2,go_nogo_deval,442,,<div></div>,32,1400,test,,,,,,,,,,,,-1,-1,500,0,fixation,poldrack-single-stim,357,460959,0.0-6.2-7.2,go_nogo_deval,442,,<div class = centerbox><div class = fixation>+</div></div>,none,500,test,,,,,,,,,,,,367,32,850,0,stim,poldrack-single-stim,358,461811,0.0-6.2-8.2,go_nogo_deval,442,,<img class = center src='/static/experiments/go_nogo_deval/images/blue_triangle.png'></img>,32,850,test,blue_triangle,go1,32,2,2,,,,,,,-1,-1,1400,0,ITI,poldrack-single-stim,359,463212,0.0-6.2-9.2,go_nogo_deval,442,,<div></div>,32,1400,test,,,,,,,,,,,,-1,-1,500,0,fixation,poldrack-single-stim,360,463713,0.0-6.2-10.2,go_nogo_deval,442,,<div class = centerbox><div class = fixation>+</div></div>,none,500,test,,,,,,,,,,,,-1,-1,850,0,stim,poldrack-single-stim,361,464565,0.0-6.2-11.2,go_nogo_deval,442,,<img class = center src='/static/experiments/go_nogo_deval/images/green_pentagon.png'></img>,32,850,test,green_pentagon,nogo2,-1,3,2,,,,,,,-1,-1,1400,0,ITI,poldrack-single-stim,362,465967,0.0-6.2-12.2,go_nogo_deval,442,,<div></div>,32,1400,test,,,,,,,,,,,,-1,-1,500,0,fixation,poldrack-single-stim,363,466469,0.0-6.2-13.2,go_nogo_deval,442,,<div class = centerbox><div class = fixation>+</div></div>,none,500,test,,,,,,,,,,,,-1,-1,850,0,stim,poldrack-single-stim,364,467321,0.0-6.2-14.2,go_nogo_deval,442,,<img class = center src='/static/experiments/go_nogo_deval/images/green_pentagon.png'></img>,32,850,test,green_pentagon,nogo2,-1,4,2,,,,,,,-1,-1,1400,0,ITI,poldrack-single-stim,365,468723,0.0-6.2-15.2,go_nogo_deval,442,,<div></div>,32,1400,test,,,,,,,,,,,,-1,-1,500,0,fixation,poldrack-single-stim,366,469224,0.0-6.2-16.2,go_nogo_deval,442,,<div class = centerbox><div class = fixation>+</div></div>,none,500,test,,,,,,,,,,,,426,32,850,0,stim,poldrack-single-stim,367,470075,0.0-6.2-17.2,go_nogo_deval,442,,<img class = center src='/static/experiments/go_nogo_deval/images/purple_rhombus.png'></img>,32,850,test,purple_rhombus,go2,32,5,2,,,,,,,-1,-1,1400,0,ITI,poldrack-single-stim,368,471476,0.0-6.2-18.2,go_nogo_deval,442,,<div></div>,32,1400,test,,,,,,,,,,,,-1,-1,500,0,fixation,poldrack-single-stim,369,471978,0.0-6.2-19.2,go_nogo_deval,442,,<div class = centerbox><div class = fixation>+</div></div>,none,500,test,,,,,,,,,,,,372,32,850,0,stim,poldrack-single-stim,370,472830,0.0-6.2-20.2,go_nogo_deval,442,,<img class = center src='/static/experiments/go_nogo_deval/images/blue_triangle.png'></img>,32,850,test,blue_triangle,go1,32,6,2,,,,,,,-1,-1,1400,0,ITI,poldrack-single-stim,371,474231,0.0-6.2-21.2,go_nogo_deval,442,,<div></div>,32,1400,test,,,,,,,,,,,,-1,-1,500,0,fixation,poldrack-single-stim,372,474733,0.0-6.2-22.2,go_nogo_deval,442,,<div class = centerbox><div class = fixation>+</div></div>,none,500,test,,,,,,,,,,,,340,32,850,0,stim,poldrack-single-stim,373,475584,0.0-6.2-23.2,go_nogo_deval,442,,<img class = center src='/static/experiments/go_nogo_deval/images/blue_triangle.png'></img>,32,850,test,blue_triangle,go1,32,7,2,,,,,,,-1,-1,1400,0,ITI,poldrack-single-stim,374,476986,0.0-6.2-24.2,go_nogo_deval,442,,<div></div>,32,1400,test,,,,,,,,,,,,-1,-1,500,0,fixation,poldrack-single-stim,375,477487,0.0-6.2-25.2,go_nogo_deval,442,,<div class = centerbox><div class = fixation>+</div></div>,none,500,test,,,,,,,,,,,,431,32,850,0,stim,poldrack-single-stim,376,478339,0.0-6.2-26.2,go_nogo_deval,442,,<img class = center src='/static/experiments/go_nogo_deval/images/purple_rhombus.png'></img>,32,850,test,purple_rhombus,go2,32,8,2,,,,,,,-1,-1,1400,0,ITI,poldrack-single-stim,377,479740,0.0-6.2-27.2,go_nogo_deval,442,,<div></div>,32,1400,test,,,,,,,,,,,,-1,-1,500,0,fixation,poldrack-single-stim,378,480242,0.0-6.2-28.2,go_nogo_deval,442,,<div class = centerbox><div class = fixation>+</div></div>,none,500,test,,,,,,,,,,,,411,32,850,0,stim,poldrack-single-stim,379,481093,0.0-6.2-29.2,go_nogo_deval,442,,<img class = center src='/static/experiments/go_nogo_deval/images/purple_rhombus.png'></img>,32,850,test,purple_rhombus,go2,32,9,2,,,,,,,-1,-1,1400,0,ITI,poldrack-single-stim,380,482495,0.0-6.2-30.2,go_nogo_deval,442,,<div></div>,32,1400,test,,,,,,,,,,,,-1,-1,500,0,fixation,poldrack-single-stim,381,482996,0.0-6.2-31.2,go_nogo_deval,442,,<div class = centerbox><div class = fixation>+</div></div>,none,500,test,,,,,,,,,,,,335,32,850,0,stim,poldrack-single-stim,382,483848,0.0-6.2-32.2,go_nogo_deval,442,,<img class = center src='/static/experiments/go_nogo_deval/images/blue_triangle.png'></img>,32,850,test,blue_triangle,go1,32,10,2,,,,,,,-1,-1,1400,0,ITI,poldrack-single-stim,383,485249,0.0-6.2-33.2,go_nogo_deval,442,,<div></div>,32,1400,test,,,,,,,,,,,,-1,-1,500,0,fixation,poldrack-single-stim,384,485751,0.0-6.2-34.2,go_nogo_deval,442,,<div class = centerbox><div class = fixation>+</div></div>,none,500,test,,,,,,,,,,,,-1,-1,850,0,stim,poldrack-single-stim,385,486602,0.0-6.2-35.2,go_nogo_deval,442,,<img class = center src='/static/experiments/go_nogo_deval/images/red_circle.png'></img>,32,850,test,red_circle,nogo1,-1,11,2,,,,,,,-1,-1,1400,0,ITI,poldrack-single-stim,386,488003,0.0-6.2-36.2,go_nogo_deval,442,,<div></div>,32,1400,test,,,,,,,,,,,,-1,-1,500,0,fixation,poldrack-single-stim,387,488505,0.0-6.2-37.2,go_nogo_deval,442,,<div class = centerbox><div class = fixation>+</div></div>,none,500,test,,,,,,,,,,,,427,32,850,0,stim,poldrack-single-stim,388,489357,0.0-6.2-38.2,go_nogo_deval,442,,<img class = center src='/static/experiments/go_nogo_deval/images/purple_rhombus.png'></img>,32,850,test,purple_rhombus,go2,32,12,2,,,,,,,-1,-1,1400,0,ITI,poldrack-single-stim,389,490759,0.0-6.2-39.2,go_nogo_deval,442,,<div></div>,32,1400,test,,,,,,,,,,,,-1,-1,500,0,fixation,poldrack-single-stim,390,491260,0.0-6.2-40.2,go_nogo_deval,442,,<div class = centerbox><div class = fixation>+</div></div>,none,500,test,,,,,,,,,,,,-1,-1,850,0,stim,poldrack-single-stim,391,492112,0.0-6.2-41.2,go_nogo_deval,442,,<img class = center src='/static/experiments/go_nogo_deval/images/red_circle.png'></img>,32,850,test,red_circle,nogo1,-1,13,2,,,,,,,-1,-1,1400,0,ITI,poldrack-single-stim,392,493514,0.0-6.2-42.2,go_nogo_deval,442,,<div></div>,32,1400,test,,,,,,,,,,,,-1,-1,500,0,fixation,poldrack-single-stim,393,494015,0.0-6.2-43.2,go_nogo_deval,442,,<div class = centerbox><div class = fixation>+</div></div>,none,500,test,,,,,,,,,,,,-1,-1,850,0,stim,poldrack-single-stim,394,494868,0.0-6.2-44.2,go_nogo_deval,442,,<img class = center src='/static/experiments/go_nogo_deval/images/green_pentagon.png'></img>,32,850,test,green_pentagon,nogo2,-1,14,2,,,,,,,-1,-1,1400,0,ITI,poldrack-single-stim,395,496270,0.0-6.2-45.2,go_nogo_deval,442,,<div></div>,32,1400,test,,,,,,,,,,,,-1,-1,500,0,fixation,poldrack-single-stim,396,496771,0.0-6.2-46.2,go_nogo_deval,442,,<div class = centerbox><div class = fixation>+</div></div>,none,500,test,,,,,,,,,,,,-1,-1,850,0,stim,poldrack-single-stim,397,497623,0.0-6.2-47.2,go_nogo_deval,442,,<img class = center src='/static/experiments/go_nogo_deval/images/red_circle.png'></img>,32,850,test,red_circle,nogo1,-1,15,2,,,,,,,-1,-1,1400,0,ITI,poldrack-single-stim,398,499025,0.0-6.2-48.2,go_nogo_deval,442,,<div></div>,32,1400,test,,,,,,,,,,,,-1,-1,500,0,fixation,poldrack-single-stim,399,499527,0.0-6.2-49.2,go_nogo_deval,442,,<div class = centerbox><div class = fixation>+</div></div>,none,500,test,,,,,,,,,,,,-1,-1,850,0,stim,poldrack-single-stim,400,500378,0.0-6.2-50.2,go_nogo_deval,442,,<img class = center src='/static/experiments/go_nogo_deval/images/green_pentagon.png'></img>,32,850,test,green_pentagon,nogo2,-1,16,2,,,,,,,-1,-1,1400,0,ITI,poldrack-single-stim,401,501780,0.0-6.2-51.2,go_nogo_deval,442,,<div></div>,32,1400,test,,,,,,,,,,,,-1,-1,500,0,fixation,poldrack-single-stim,402,502281,0.0-6.2-52.2,go_nogo_deval,442,,<div class = centerbox><div class = fixation>+</div></div>,none,500,test,,,,,,,,,,,,-1,-1,850,0,stim,poldrack-single-stim,403,503133,0.0-6.2-53.2,go_nogo_deval,442,,<img class = center src='/static/experiments/go_nogo_deval/images/red_circle.png'></img>,32,850,test,red_circle,nogo1,-1,17,2,,,,,,,-1,-1,1400,0,ITI,poldrack-single-stim,404,504535,0.0-6.2-54.2,go_nogo_deval,442,,<div></div>,32,1400,test,,,,,,,,,,,,-1,-1,500,0,fixation,poldrack-single-stim,405,505037,0.0-6.2-55.2,go_nogo_deval,442,,<div class = centerbox><div class = fixation>+</div></div>,none,500,test,,,,,,,,,,,,490,32,850,0,stim,poldrack-single-stim,406,505888,0.0-6.2-56.2,go_nogo_deval,442,,<img class = center src='/static/experiments/go_nogo_deval/images/purple_rhombus.png'></img>,32,850,test,purple_rhombus,go2,32,18,2,,,,,,,-1,-1,1400,0,ITI,poldrack-single-stim,407,507289,0.0-6.2-57.2,go_nogo_deval,442,,<div></div>,32,1400,test,,,,,,,,,,,,-1,-1,500,0,fixation,poldrack-single-stim,408,507791,0.0-6.2-58.2,go_nogo_deval,442,,<div class = centerbox><div class = fixation>+</div></div>,none,500,test,,,,,,,,,,,,470,32,850,0,stim,poldrack-single-stim,409,508642,0.0-6.2-59.2,go_nogo_deval,442,,<img class = center src='/static/experiments/go_nogo_deval/images/purple_rhombus.png'></img>,32,850,test,purple_rhombus,go2,32,19,2,,,,,,,-1,-1,1400,0,ITI,poldrack-single-stim,410,510044,0.0-6.2-60.2,go_nogo_deval,442,,<div></div>,32,1400,test,,,,,,,,,,,,-1,-1,500,0,fixation,poldrack-single-stim,411,510546,0.0-6.2-61.2,go_nogo_deval,442,,<div class = centerbox><div class = fixation>+</div></div>,none,500,test,,,,,,,,,,,,505,32,850,0,stim,poldrack-single-stim,412,511398,0.0-6.2-62.2,go_nogo_deval,442,,<img class = center src='/static/experiments/go_nogo_deval/images/purple_rhombus.png'></img>,32,850,test,purple_rhombus,go2,32,20,2,,,,,,,-1,-1,1400,0,ITI,poldrack-single-stim,413,512799,0.0-6.2-63.2,go_nogo_deval,442,,<div></div>,32,1400,test,,,,,,,,,,,,-1,-1,500,0,fixation,poldrack-single-stim,414,513301,0.0-6.2-64.2,go_nogo_deval,442,,<div class = centerbox><div class = fixation>+</div></div>,none,500,test,,,,,,,,,,,,404,32,850,0,stim,poldrack-single-stim,415,514153,0.0-6.2-65.2,go_nogo_deval,442,,<img class = center src='/static/experiments/go_nogo_deval/images/blue_triangle.png'></img>,32,850,test,blue_triangle,go1,32,21,2,,,,,,,-1,-1,1400,0,ITI,poldrack-single-stim,416,515555,0.0-6.2-66.2,go_nogo_deval,442,,<div></div>,32,1400,test,,,,,,,,,,,,-1,-1,500,0,fixation,poldrack-single-stim,417,516056,0.0-6.2-67.2,go_nogo_deval,442,,<div class = centerbox><div class = fixation>+</div></div>,none,500,test,,,,,,,,,,,,394,32,850,0,stim,poldrack-single-stim,418,516908,0.0-6.2-68.2,go_nogo_deval,442,,<img class = center src='/static/experiments/go_nogo_deval/images/blue_triangle.png'></img>,32,850,test,blue_triangle,go1,32,22,2,,,,,,,-1,-1,1400,0,ITI,poldrack-single-stim,419,518310,0.0-6.2-69.2,go_nogo_deval,442,,<div></div>,32,1400,test,,,,,,,,,,,,-1,-1,500,0,fixation,poldrack-single-stim,420,518811,0.0-6.2-70.2,go_nogo_deval,442,,<div class = centerbox><div class = fixation>+</div></div>,none,500,test,,,,,,,,,,,,362,32,850,0,stim,poldrack-single-stim,421,519663,0.0-6.2-71.2,go_nogo_deval,442,,<img class = center src='/static/experiments/go_nogo_deval/images/blue_triangle.png'></img>,32,850,test,blue_triangle,go1,32,23,2,,,,,,,-1,-1,1400,0,ITI,poldrack-single-stim,422,521064,0.0-6.2-72.2,go_nogo_deval,442,,<div></div>,32,1400,test,,,,,,,,,,,,-1,-1,500,0,fixation,poldrack-single-stim,423,521566,0.0-6.2-73.2,go_nogo_deval,442,,<div class = centerbox><div class = fixation>+</div></div>,none,500,test,,,,,,,,,,,,409,32,850,0,stim,poldrack-single-stim,424,522418,0.0-6.2-74.2,go_nogo_deval,442,,<img class = center src='/static/experiments/go_nogo_deval/images/purple_rhombus.png'></img>,32,850,test,purple_rhombus,go2,32,24,2,,,,,,,-1,-1,1400,0,ITI,poldrack-single-stim,425,523820,0.0-6.2-75.2,go_nogo_deval,442,,<div></div>,32,1400,test,,,,,,,,,,,,-1,-1,500,0,fixation,poldrack-single-stim,426,524321,0.0-6.2-76.2,go_nogo_deval,442,,<div class = centerbox><div class = fixation>+</div></div>,none,500,test,,,,,,,,,,,,-1,-1,850,0,stim,poldrack-single-stim,427,525173,0.0-6.2-77.2,go_nogo_deval,442,,<img class = center src='/static/experiments/go_nogo_deval/images/red_circle.png'></img>,32,850,test,red_circle,nogo1,-1,25,2,,,,,,,-1,-1,1400,0,ITI,poldrack-single-stim,428,526574,0.0-6.2-78.2,go_nogo_deval,442,,<div></div>,32,1400,test,,,,,,,,,,,,-1,-1,500,0,fixation,poldrack-single-stim,429,527075,0.0-6.2-79.2,go_nogo_deval,442,,<div class = centerbox><div class = fixation>+</div></div>,none,500,test,,,,,,,,,,,,558,32,850,0,stim,poldrack-single-stim,430,527927,0.0-6.2-80.2,go_nogo_deval,442,,<img class = center src='/static/experiments/go_nogo_deval/images/purple_rhombus.png'></img>,32,850,test,purple_rhombus,go2,32,26,2,,,,,,,-1,-1,1400,0,ITI,poldrack-single-stim,431,529329,0.0-6.2-81.2,go_nogo_deval,442,,<div></div>,32,1400,test,,,,,,,,,,,,-1,-1,500,0,fixation,poldrack-single-stim,432,529831,0.0-6.2-82.2,go_nogo_deval,442,,<div class = centerbox><div class = fixation>+</div></div>,none,500,test,,,,,,,,,,,,424,32,850,0,stim,poldrack-single-stim,433,530682,0.0-6.2-83.2,go_nogo_deval,442,,<img class = center src='/static/experiments/go_nogo_deval/images/purple_rhombus.png'></img>,32,850,test,purple_rhombus,go2,32,27,2,,,,,,,-1,-1,1400,0,ITI,poldrack-single-stim,434,532084,0.0-6.2-84.2,go_nogo_deval,442,,<div></div>,32,1400,test,,,,,,,,,,,,-1,-1,500,0,fixation,poldrack-single-stim,435,532586,0.0-6.2-85.2,go_nogo_deval,442,,<div class = centerbox><div class = fixation>+</div></div>,none,500,test,,,,,,,,,,,,436,32,850,0,stim,poldrack-single-stim,436,533438,0.0-6.2-86.2,go_nogo_deval,442,,<img class = center src='/static/experiments/go_nogo_deval/images/blue_triangle.png'></img>,32,850,test,blue_triangle,go1,32,28,2,,,,,,,-1,-1,1400,0,ITI,poldrack-single-stim,437,534839,0.0-6.2-87.2,go_nogo_deval,442,,<div></div>,32,1400,test,,,,,,,,,,,,-1,-1,500,0,fixation,poldrack-single-stim,438,535340,0.0-6.2-88.2,go_nogo_deval,442,,<div class = centerbox><div class = fixation>+</div></div>,none,500,test,,,,,,,,,,,,336,32,850,0,stim,poldrack-single-stim,439,536191,0.0-6.2-89.2,go_nogo_deval,442,,<img class = center src='/static/experiments/go_nogo_deval/images/blue_triangle.png'></img>,32,850,test,blue_triangle,go1,32,29,2,,,,,,,-1,-1,1400,0,ITI,poldrack-single-stim,440,537593,0.0-6.2-90.2,go_nogo_deval,442,,<div></div>,32,1400,test,,,,,,,,,,,,-1,-1,500,0,fixation,poldrack-single-stim,441,538095,0.0-6.2-91.2,go_nogo_deval,442,,<div class = centerbox><div class = fixation>+</div></div>,none,500,test,,,,,,,,,,,,-1,-1,850,0,stim,poldrack-single-stim,442,538947,0.0-6.2-92.2,go_nogo_deval,442,,<img class = center src='/static/experiments/go_nogo_deval/images/green_pentagon.png'></img>,32,850,test,green_pentagon,nogo2,-1,30,2,,,,,,,-1,-1,1400,0,ITI,poldrack-single-stim,443,540349,0.0-6.2-93.2,go_nogo_deval,442,,<div></div>,32,1400,test,,,,,,,,,,,,-1,-1,500,0,fixation,poldrack-single-stim,444,540851,0.0-6.2-94.2,go_nogo_deval,442,,<div class = centerbox><div class = fixation>+</div></div>,none,500,test,,,,,,,,,,,,486,32,850,0,stim,poldrack-single-stim,445,541703,0.0-6.2-95.2,go_nogo_deval,442,,<img class = center src='/static/experiments/go_nogo_deval/images/blue_triangle.png'></img>,32,850,test,blue_triangle,go1,32,31,2,,,,,,,-1,-1,1400,0,ITI,poldrack-single-stim,446,543105,0.0-6.2-96.2,go_nogo_deval,442,,<div></div>,32,1400,test,,,,,,,,,,,,-1,-1,500,0,fixation,poldrack-single-stim,447,543606,0.0-6.2-97.2,go_nogo_deval,442,,<div class = centerbox><div class = fixation>+</div></div>,none,500,test,,,,,,,,,,,,352,32,850,0,stim,poldrack-single-stim,448,544457,0.0-6.2-98.2,go_nogo_deval,442,,<img class = center src='/static/experiments/go_nogo_deval/images/blue_triangle.png'></img>,32,850,test,blue_triangle,go1,32,32,2,,,,,,,-1,-1,1400,0,ITI,poldrack-single-stim,449,545859,0.0-6.2-99.2,go_nogo_deval,442,,<div></div>,32,1400,test,,,,,,,,,,,,-1,-1,500,0,fixation,poldrack-single-stim,450,546360,0.0-6.2-100.2,go_nogo_deval,442,,<div class = centerbox><div class = fixation>+</div></div>,none,500,test,,,,,,,,,,,,432,32,850,0,stim,poldrack-single-stim,451,547212,0.0-6.2-101.2,go_nogo_deval,442,,<img class = center src='/static/experiments/go_nogo_deval/images/purple_rhombus.png'></img>,32,850,test,purple_rhombus,go2,32,33,2,,,,,,,-1,-1,1400,0,ITI,poldrack-single-stim,452,548613,0.0-6.2-102.2,go_nogo_deval,442,,<div></div>,32,1400,test,,,,,,,,,,,,-1,-1,500,0,fixation,poldrack-single-stim,453,549115,0.0-6.2-103.2,go_nogo_deval,442,,<div class = centerbox><div class = fixation>+</div></div>,none,500,test,,,,,,,,,,,,411,32,850,0,stim,poldrack-single-stim,454,549966,0.0-6.2-104.2,go_nogo_deval,442,,<img class = center src='/static/experiments/go_nogo_deval/images/purple_rhombus.png'></img>,32,850,test,purple_rhombus,go2,32,34,2,,,,,,,-1,-1,1400,0,ITI,poldrack-single-stim,455,551368,0.0-6.2-105.2,go_nogo_deval,442,,<div></div>,32,1400,test,,,,,,,,,,,,-1,-1,500,0,fixation,poldrack-single-stim,456,551869,0.0-6.2-106.2,go_nogo_deval,442,,<div class = centerbox><div class = fixation>+</div></div>,none,500,test,,,,,,,,,,,,-1,-1,850,0,stim,poldrack-single-stim,457,552721,0.0-6.2-107.2,go_nogo_deval,442,,<img class = center src='/static/experiments/go_nogo_deval/images/green_pentagon.png'></img>,32,850,test,green_pentagon,nogo2,-1,35,2,,,,,,,-1,-1,1400,0,ITI,poldrack-single-stim,458,554122,0.0-6.2-108.2,go_nogo_deval,442,,<div></div>,32,1400,test,,,,,,,,,,,,-1,-1,500,0,fixation,poldrack-single-stim,459,554624,0.0-6.2-109.2,go_nogo_deval,442,,<div class = centerbox><div class = fixation>+</div></div>,none,500,test,,,,,,,,,,,,-1,-1,850,0,stim,poldrack-single-stim,460,555476,0.0-6.2-110.2,go_nogo_deval,442,,<img class = center src='/static/experiments/go_nogo_deval/images/red_circle.png'></img>,32,850,test,red_circle,nogo1,-1,36,2,,,,,,,-1,-1,1400,0,ITI,poldrack-single-stim,461,556878,0.0-6.2-111.2,go_nogo_deval,442,,<div></div>,32,1400,test,,,,,,,,,,,,-1,-1,500,0,fixation,poldrack-single-stim,462,557378,0.0-6.2-112.2,go_nogo_deval,442,,<div class = centerbox><div class = fixation>+</div></div>,none,500,test,,,,,,,,,,,,473,32,850,0,stim,poldrack-single-stim,463,558230,0.0-6.2-113.2,go_nogo_deval,442,,<img class = center src='/static/experiments/go_nogo_deval/images/purple_rhombus.png'></img>,32,850,test,purple_rhombus,go2,32,37,2,,,,,,,-1,-1,1400,0,ITI,poldrack-single-stim,464,559632,0.0-6.2-114.2,go_nogo_deval,442,,<div></div>,32,1400,test,,,,,,,,,,,,-1,-1,500,0,fixation,poldrack-single-stim,465,560134,0.0-6.2-115.2,go_nogo_deval,442,,<div class = centerbox><div class = fixation>+</div></div>,none,500,test,,,,,,,,,,,,405,32,850,0,stim,poldrack-single-stim,466,560986,0.0-6.2-116.2,go_nogo_deval,442,,<img class = center src='/static/experiments/go_nogo_deval/images/blue_triangle.png'></img>,32,850,test,blue_triangle,go1,32,38,2,,,,,,,-1,-1,1400,0,ITI,poldrack-single-stim,467,562388,0.0-6.2-117.2,go_nogo_deval,442,,<div></div>,32,1400,test,,,,,,,,,,,,-1,-1,500,0,fixation,poldrack-single-stim,468,562890,0.0-6.2-118.2,go_nogo_deval,442,,<div class = centerbox><div class = fixation>+</div></div>,none,500,test,,,,,,,,,,,,-1,-1,850,0,stim,poldrack-single-stim,469,563741,0.0-6.2-119.2,go_nogo_deval,442,,<img class = center src='/static/experiments/go_nogo_deval/images/green_pentagon.png'></img>,32,850,test,green_pentagon,nogo2,-1,39,2,,,,,,,-1,-1,1400,0,ITI,poldrack-single-stim,470,565142,0.0-6.2-120.2,go_nogo_deval,442,,<div></div>,32,1400,test,,,,,,,,,,,,-1,-1,500,0,fixation,poldrack-single-stim,471,565644,0.0-6.2-121.2,go_nogo_deval,442,,<div class = centerbox><div class = fixation>+</div></div>,none,500,test,,,,,,,,,,,,442,32,850,0,stim,poldrack-single-stim,472,566495,0.0-6.2-122.2,go_nogo_deval,442,,<img class = center src='/static/experiments/go_nogo_deval/images/blue_triangle.png'></img>,32,850,test,blue_triangle,go1,32,40,2,,,,,,,64,32,1400,0,ITI,poldrack-single-stim,473,567897,0.0-6.2-123.2,go_nogo_deval,442,,<div></div>,32,1400,test,,,,,,,,,,,,-1,-1,500,0,fixation,poldrack-single-stim,474,568398,0.0-6.2-124.2,go_nogo_deval,442,,<div class = centerbox><div class = fixation>+</div></div>,none,500,test,,,,,,,,,,,,-1,-1,850,0,stim,poldrack-single-stim,475,569250,0.0-6.2-125.2,go_nogo_deval,442,,<img class = center src='/static/experiments/go_nogo_deval/images/red_circle.png'></img>,32,850,test,red_circle,nogo1,-1,41,2,,,,,,,-1,-1,1400,0,ITI,poldrack-single-stim,476,570652,0.0-6.2-126.2,go_nogo_deval,442,,<div></div>,32,1400,test,,,,,,,,,,,,-1,-1,500,0,fixation,poldrack-single-stim,477,571153,0.0-6.2-127.2,go_nogo_deval,442,,<div class = centerbox><div class = fixation>+</div></div>,none,500,test,,,,,,,,,,,,435,32,850,0,stim,poldrack-single-stim,478,572005,0.0-6.2-128.2,go_nogo_deval,442,,<img class = center src='/static/experiments/go_nogo_deval/images/purple_rhombus.png'></img>,32,850,test,purple_rhombus,go2,32,42,2,,,,,,,-1,-1,1400,0,ITI,poldrack-single-stim,479,573407,0.0-6.2-129.2,go_nogo_deval,442,,<div></div>,32,1400,test,,,,,,,,,,,,-1,-1,500,0,fixation,poldrack-single-stim,480,573909,0.0-6.2-130.2,go_nogo_deval,442,,<div class = centerbox><div class = fixation>+</div></div>,none,500,test,,,,,,,,,,,,356,32,850,0,stim,poldrack-single-stim,481,574759,0.0-6.2-131.2,go_nogo_deval,442,,<img class = center src='/static/experiments/go_nogo_deval/images/blue_triangle.png'></img>,32,850,test,blue_triangle,go1,32,43,2,,,,,,,-1,-1,1400,0,ITI,poldrack-single-stim,482,576161,0.0-6.2-132.2,go_nogo_deval,442,,<div></div>,32,1400,test,,,,,,,,,,,,-1,-1,500,0,fixation,poldrack-single-stim,483,576663,0.0-6.2-133.2,go_nogo_deval,442,,<div class = centerbox><div class = fixation>+</div></div>,none,500,test,,,,,,,,,,,,358,32,850,0,stim,poldrack-single-stim,484,577515,0.0-6.2-134.2,go_nogo_deval,442,,<img class = center src='/static/experiments/go_nogo_deval/images/blue_triangle.png'></img>,32,850,test,blue_triangle,go1,32,44,2,,,,,,,-1,-1,1400,0,ITI,poldrack-single-stim,485,578917,0.0-6.2-135.2,go_nogo_deval,442,,<div></div>,32,1400,test,,,,,,,,,,,,-1,-1,500,0,fixation,poldrack-single-stim,486,579419,0.0-6.2-136.2,go_nogo_deval,442,,<div class = centerbox><div class = fixation>+</div></div>,none,500,test,,,,,,,,,,,,-1,-1,850,0,stim,poldrack-single-stim,487,580270,0.0-6.2-137.2,go_nogo_deval,442,,<img class = center src='/static/experiments/go_nogo_deval/images/green_pentagon.png'></img>,32,850,test,green_pentagon,nogo2,-1,45,2,,,,,,,-1,-1,1400,0,ITI,poldrack-single-stim,488,581671,0.0-6.2-138.2,go_nogo_deval,442,,<div></div>,32,1400,test,,,,,,,,,,,,-1,-1,500,0,fixation,poldrack-single-stim,489,582173,0.0-6.2-139.2,go_nogo_deval,442,,<div class = centerbox><div class = fixation>+</div></div>,none,500,test,,,,,,,,,,,,451,32,850,0,stim,poldrack-single-stim,490,583024,0.0-6.2-140.2,go_nogo_deval,442,,<img class = center src='/static/experiments/go_nogo_deval/images/purple_rhombus.png'></img>,32,850,test,purple_rhombus,go2,32,46,2,,,,,,,-1,-1,1400,0,ITI,poldrack-single-stim,491,584425,0.0-6.2-141.2,go_nogo_deval,442,,<div></div>,32,1400,test,,,,,,,,,,,,-1,-1,500,0,fixation,poldrack-single-stim,492,584927,0.0-6.2-142.2,go_nogo_deval,442,,<div class = centerbox><div class = fixation>+</div></div>,none,500,test,,,,,,,,,,,,408,32,850,0,stim,poldrack-single-stim,493,585779,0.0-6.2-143.2,go_nogo_deval,442,,<img class = center src='/static/experiments/go_nogo_deval/images/blue_triangle.png'></img>,32,850,test,blue_triangle,go1,32,47,2,,,,,,,-1,-1,1400,0,ITI,poldrack-single-stim,494,587180,0.0-6.2-144.2,go_nogo_deval,442,,<div></div>,32,1400,test,,,,,,,,,,,,3304,13,3304,0,practice-no-stop-feedback,poldrack-single-stim,495,590488,0.0-6.3-0.3,go_nogo_deval,442,,<div class = centerbox><p class = block-text><br>Please take this time to read your feedback and to take a short break! Press enter to continue</p><p class = block-text><strong>Average reaction time:  417 ms. Accuracy: 100%</strong></p></div>,13,3304,,,,,,,,,,,,,-1,-1,500,0,fixation,poldrack-single-stim,496,590990,0.0-6.3-1.3,go_nogo_deval,442,,<div class = centerbox><div class = fixation>+</div></div>,none,500,test,,,,,,,,,,,,420,32,850,0,stim,poldrack-single-stim,497,591841,0.0-6.3-2.3,go_nogo_deval,442,,<img class = center src='/static/experiments/go_nogo_deval/images/blue_triangle.png'></img>,32,850,test,blue_triangle,go1,32,0,3,,,,,,,-1,-1,1400,0,ITI,poldrack-single-stim,498,593243,0.0-6.3-3.3,go_nogo_deval,442,,<div></div>,32,1400,test,,,,,,,,,,,,-1,-1,500,0,fixation,poldrack-single-stim,499,593745,0.0-6.3-4.3,go_nogo_deval,442,,<div class = centerbox><div class = fixation>+</div></div>,none,500,test,,,,,,,,,,,,489,32,850,0,stim,poldrack-single-stim,500,594596,0.0-6.3-5.3,go_nogo_deval,442,,<img class = center src='/static/experiments/go_nogo_deval/images/purple_rhombus.png'></img>,32,850,test,purple_rhombus,go2,32,1,3,,,,,,,-1,-1,1400,0,ITI,poldrack-single-stim,501,595997,0.0-6.3-6.3,go_nogo_deval,442,,<div></div>,32,1400,test,,,,,,,,,,,,-1,-1,500,0,fixation,poldrack-single-stim,502,596499,0.0-6.3-7.3,go_nogo_deval,442,,<div class = centerbox><div class = fixation>+</div></div>,none,500,test,,,,,,,,,,,,-1,-1,850,0,stim,poldrack-single-stim,503,597350,0.0-6.3-8.3,go_nogo_deval,442,,<img class = center src='/static/experiments/go_nogo_deval/images/red_circle.png'></img>,32,850,test,red_circle,nogo1,-1,2,3,,,,,,,-1,-1,1400,0,ITI,poldrack-single-stim,504,598752,0.0-6.3-9.3,go_nogo_deval,442,,<div></div>,32,1400,test,,,,,,,,,,,,-1,-1,500,0,fixation,poldrack-single-stim,505,599253,0.0-6.3-10.3,go_nogo_deval,442,,<div class = centerbox><div class = fixation>+</div></div>,none,500,test,,,,,,,,,,,,-1,-1,850,0,stim,poldrack-single-stim,506,600105,0.0-6.3-11.3,go_nogo_deval,442,,<img class = center src='/static/experiments/go_nogo_deval/images/green_pentagon.png'></img>,32,850,test,green_pentagon,nogo2,-1,3,3,,,,,,,-1,-1,1400,0,ITI,poldrack-single-stim,507,601506,0.0-6.3-12.3,go_nogo_deval,442,,<div></div>,32,1400,test,,,,,,,,,,,,-1,-1,500,0,fixation,poldrack-single-stim,508,602008,0.0-6.3-13.3,go_nogo_deval,442,,<div class = centerbox><div class = fixation>+</div></div>,none,500,test,,,,,,,,,,,,-1,-1,850,0,stim,poldrack-single-stim,509,602859,0.0-6.3-14.3,go_nogo_deval,442,,<img class = center src='/static/experiments/go_nogo_deval/images/green_pentagon.png'></img>,32,850,test,green_pentagon,nogo2,-1,4,3,,,,,,,-1,-1,1400,0,ITI,poldrack-single-stim,510,604261,0.0-6.3-15.3,go_nogo_deval,442,,<div></div>,32,1400,test,,,,,,,,,,,,-1,-1,500,0,fixation,poldrack-single-stim,511,604762,0.0-6.3-16.3,go_nogo_deval,442,,<div class = centerbox><div class = fixation>+</div></div>,none,500,test,,,,,,,,,,,,429,32,850,0,stim,poldrack-single-stim,512,605614,0.0-6.3-17.3,go_nogo_deval,442,,<img class = center src='/static/experiments/go_nogo_deval/images/purple_rhombus.png'></img>,32,850,test,purple_rhombus,go2,32,5,3,,,,,,,-1,-1,1400,0,ITI,poldrack-single-stim,513,607016,0.0-6.3-18.3,go_nogo_deval,442,,<div></div>,32,1400,test,,,,,,,,,,,,-1,-1,500,0,fixation,poldrack-single-stim,514,607518,0.0-6.3-19.3,go_nogo_deval,442,,<div class = centerbox><div class = fixation>+</div></div>,none,500,test,,,,,,,,,,,,441,32,850,0,stim,poldrack-single-stim,515,608370,0.0-6.3-20.3,go_nogo_deval,442,,<img class = center src='/static/experiments/go_nogo_deval/images/purple_rhombus.png'></img>,32,850,test,purple_rhombus,go2,32,6,3,,,,,,,-1,-1,1400,0,ITI,poldrack-single-stim,516,609772,0.0-6.3-21.3,go_nogo_deval,442,,<div></div>,32,1400,test,,,,,,,,,,,,-1,-1,500,0,fixation,poldrack-single-stim,517,610274,0.0-6.3-22.3,go_nogo_deval,442,,<div class = centerbox><div class = fixation>+</div></div>,none,500,test,,,,,,,,,,,,441,32,850,0,stim,poldrack-single-stim,518,611125,0.0-6.3-23.3,go_nogo_deval,442,,<img class = center src='/static/experiments/go_nogo_deval/images/purple_rhombus.png'></img>,32,850,test,purple_rhombus,go2,32,7,3,,,,,,,-1,-1,1400,0,ITI,poldrack-single-stim,519,612526,0.0-6.3-24.3,go_nogo_deval,442,,<div></div>,32,1400,test,,,,,,,,,,,,-1,-1,500,0,fixation,poldrack-single-stim,520,613028,0.0-6.3-25.3,go_nogo_deval,442,,<div class = centerbox><div class = fixation>+</div></div>,none,500,test,,,,,,,,,,,,-1,-1,850,0,stim,poldrack-single-stim,521,613880,0.0-6.3-26.3,go_nogo_deval,442,,<img class = center src='/static/experiments/go_nogo_deval/images/red_circle.png'></img>,32,850,test,red_circle,nogo1,-1,8,3,,,,,,,-1,-1,1400,0,ITI,poldrack-single-stim,522,615281,0.0-6.3-27.3,go_nogo_deval,442,,<div></div>,32,1400,test,,,,,,,,,,,,-1,-1,500,0,fixation,poldrack-single-stim,523,615783,0.0-6.3-28.3,go_nogo_deval,442,,<div class = centerbox><div class = fixation>+</div></div>,none,500,test,,,,,,,,,,,,389,32,850,0,stim,poldrack-single-stim,524,616634,0.0-6.3-29.3,go_nogo_deval,442,,<img class = center src='/static/experiments/go_nogo_deval/images/blue_triangle.png'></img>,32,850,test,blue_triangle,go1,32,9,3,,,,,,,-1,-1,1400,0,ITI,poldrack-single-stim,525,618036,0.0-6.3-30.3,go_nogo_deval,442,,<div></div>,32,1400,test,,,,,,,,,,,,-1,-1,500,0,fixation,poldrack-single-stim,526,618537,0.0-6.3-31.3,go_nogo_deval,442,,<div class = centerbox><div class = fixation>+</div></div>,none,500,test,,,,,,,,,,,,357,32,850,0,stim,poldrack-single-stim,527,619389,0.0-6.3-32.3,go_nogo_deval,442,,<img class = center src='/static/experiments/go_nogo_deval/images/blue_triangle.png'></img>,32,850,test,blue_triangle,go1,32,10,3,,,,,,,-1,-1,1400,0,ITI,poldrack-single-stim,528,620791,0.0-6.3-33.3,go_nogo_deval,442,,<div></div>,32,1400,test,,,,,,,,,,,,-1,-1,500,0,fixation,poldrack-single-stim,529,621292,0.0-6.3-34.3,go_nogo_deval,442,,<div class = centerbox><div class = fixation>+</div></div>,none,500,test,,,,,,,,,,,,-1,-1,850,0,stim,poldrack-single-stim,530,622144,0.0-6.3-35.3,go_nogo_deval,442,,<img class = center src='/static/experiments/go_nogo_deval/images/red_circle.png'></img>,32,850,test,red_circle,nogo1,-1,11,3,,,,,,,-1,-1,1400,0,ITI,poldrack-single-stim,531,623545,0.0-6.3-36.3,go_nogo_deval,442,,<div></div>,32,1400,test,,,,,,,,,,,,-1,-1,500,0,fixation,poldrack-single-stim,532,624047,0.0-6.3-37.3,go_nogo_deval,442,,<div class = centerbox><div class = fixation>+</div></div>,none,500,test,,,,,,,,,,,,-1,-1,850,0,stim,poldrack-single-stim,533,624899,0.0-6.3-38.3,go_nogo_deval,442,,<img class = center src='/static/experiments/go_nogo_deval/images/green_pentagon.png'></img>,32,850,test,green_pentagon,nogo2,-1,12,3,,,,,,,-1,-1,1400,0,ITI,poldrack-single-stim,534,626300,0.0-6.3-39.3,go_nogo_deval,442,,<div></div>,32,1400,test,,,,,,,,,,,,-1,-1,500,0,fixation,poldrack-single-stim,535,626802,0.0-6.3-40.3,go_nogo_deval,442,,<div class = centerbox><div class = fixation>+</div></div>,none,500,test,,,,,,,,,,,,361,32,850,0,stim,poldrack-single-stim,536,627654,0.0-6.3-41.3,go_nogo_deval,442,,<img class = center src='/static/experiments/go_nogo_deval/images/purple_rhombus.png'></img>,32,850,test,purple_rhombus,go2,32,13,3,,,,,,,-1,-1,1400,0,ITI,poldrack-single-stim,537,629055,0.0-6.3-42.3,go_nogo_deval,442,,<div></div>,32,1400,test,,,,,,,,,,,,-1,-1,500,0,fixation,poldrack-single-stim,538,629557,0.0-6.3-43.3,go_nogo_deval,442,,<div class = centerbox><div class = fixation>+</div></div>,none,500,test,,,,,,,,,,,,407,32,850,0,stim,poldrack-single-stim,539,630408,0.0-6.3-44.3,go_nogo_deval,442,,<img class = center src='/static/experiments/go_nogo_deval/images/purple_rhombus.png'></img>,32,850,test,purple_rhombus,go2,32,14,3,,,,,,,-1,-1,1400,0,ITI,poldrack-single-stim,540,631809,0.0-6.3-45.3,go_nogo_deval,442,,<div></div>,32,1400,test,,,,,,,,,,,,-1,-1,500,0,fixation,poldrack-single-stim,541,632311,0.0-6.3-46.3,go_nogo_deval,442,,<div class = centerbox><div class = fixation>+</div></div>,none,500,test,,,,,,,,,,,,-1,-1,850,0,stim,poldrack-single-stim,542,633163,0.0-6.3-47.3,go_nogo_deval,442,,<img class = center src='/static/experiments/go_nogo_deval/images/red_circle.png'></img>,32,850,test,red_circle,nogo1,-1,15,3,,,,,,,-1,-1,1400,0,ITI,poldrack-single-stim,543,634564,0.0-6.3-48.3,go_nogo_deval,442,,<div></div>,32,1400,test,,,,,,,,,,,,-1,-1,500,0,fixation,poldrack-single-stim,544,635066,0.0-6.3-49.3,go_nogo_deval,442,,<div class = centerbox><div class = fixation>+</div></div>,none,500,test,,,,,,,,,,,,-1,-1,850,0,stim,poldrack-single-stim,545,635917,0.0-6.3-50.3,go_nogo_deval,442,,<img class = center src='/static/experiments/go_nogo_deval/images/green_pentagon.png'></img>,32,850,test,green_pentagon,nogo2,-1,16,3,,,,,,,-1,-1,1400,0,ITI,poldrack-single-stim,546,637318,0.0-6.3-51.3,go_nogo_deval,442,,<div></div>,32,1400,test,,,,,,,,,,,,-1,-1,500,0,fixation,poldrack-single-stim,547,637820,0.0-6.3-52.3,go_nogo_deval,442,,<div class = centerbox><div class = fixation>+</div></div>,none,500,test,,,,,,,,,,,,412,32,850,0,stim,poldrack-single-stim,548,638672,0.0-6.3-53.3,go_nogo_deval,442,,<img class = center src='/static/experiments/go_nogo_deval/images/purple_rhombus.png'></img>,32,850,test,purple_rhombus,go2,32,17,3,,,,,,,-1,-1,1400,0,ITI,poldrack-single-stim,549,640073,0.0-6.3-54.3,go_nogo_deval,442,,<div></div>,32,1400,test,,,,,,,,,,,,-1,-1,500,0,fixation,poldrack-single-stim,550,640575,0.0-6.3-55.3,go_nogo_deval,442,,<div class = centerbox><div class = fixation>+</div></div>,none,500,test,,,,,,,,,,,,437,32,850,0,stim,poldrack-single-stim,551,641426,0.0-6.3-56.3,go_nogo_deval,442,,<img class = center src='/static/experiments/go_nogo_deval/images/blue_triangle.png'></img>,32,850,test,blue_triangle,go1,32,18,3,,,,,,,-1,-1,1400,0,ITI,poldrack-single-stim,552,642828,0.0-6.3-57.3,go_nogo_deval,442,,<div></div>,32,1400,test,,,,,,,,,,,,-1,-1,500,0,fixation,poldrack-single-stim,553,643329,0.0-6.3-58.3,go_nogo_deval,442,,<div class = centerbox><div class = fixation>+</div></div>,none,500,test,,,,,,,,,,,,359,32,850,0,stim,poldrack-single-stim,554,644181,0.0-6.3-59.3,go_nogo_deval,442,,<img class = center src='/static/experiments/go_nogo_deval/images/blue_triangle.png'></img>,32,850,test,blue_triangle,go1,32,19,3,,,,,,,-1,-1,1400,0,ITI,poldrack-single-stim,555,645583,0.0-6.3-60.3,go_nogo_deval,442,,<div></div>,32,1400,test,,,,,,,,,,,,-1,-1,500,0,fixation,poldrack-single-stim,556,646084,0.0-6.3-61.3,go_nogo_deval,442,,<div class = centerbox><div class = fixation>+</div></div>,none,500,test,,,,,,,,,,,,339,32,850,0,stim,poldrack-single-stim,557,646936,0.0-6.3-62.3,go_nogo_deval,442,,<img class = center src='/static/experiments/go_nogo_deval/images/blue_triangle.png'></img>,32,850,test,blue_triangle,go1,32,20,3,,,,,,,-1,-1,1400,0,ITI,poldrack-single-stim,558,648337,0.0-6.3-63.3,go_nogo_deval,442,,<div></div>,32,1400,test,,,,,,,,,,,,-1,-1,500,0,fixation,poldrack-single-stim,559,648839,0.0-6.3-64.3,go_nogo_deval,442,,<div class = centerbox><div class = fixation>+</div></div>,none,500,test,,,,,,,,,,,,-1,-1,850,0,stim,poldrack-single-stim,560,649691,0.0-6.3-65.3,go_nogo_deval,442,,<img class = center src='/static/experiments/go_nogo_deval/images/red_circle.png'></img>,32,850,test,red_circle,nogo1,-1,21,3,,,,,,,-1,-1,1400,0,ITI,poldrack-single-stim,561,651092,0.0-6.3-66.3,go_nogo_deval,442,,<div></div>,32,1400,test,,,,,,,,,,,,-1,-1,500,0,fixation,poldrack-single-stim,562,651594,0.0-6.3-67.3,go_nogo_deval,442,,<div class = centerbox><div class = fixation>+</div></div>,none,500,test,,,,,,,,,,,,353,32,850,0,stim,poldrack-single-stim,563,652445,0.0-6.3-68.3,go_nogo_deval,442,,<img class = center src='/static/experiments/go_nogo_deval/images/blue_triangle.png'></img>,32,850,test,blue_triangle,go1,32,22,3,,,,,,,1053,32,1400,0,ITI,poldrack-single-stim,564,653847,0.0-6.3-69.3,go_nogo_deval,442,,<div></div>,32,1400,test,,,,,,,,,,,,-1,-1,500,0,fixation,poldrack-single-stim,565,654349,0.0-6.3-70.3,go_nogo_deval,442,,<div class = centerbox><div class = fixation>+</div></div>,none,500,test,,,,,,,,,,,,-1,-1,850,0,stim,poldrack-single-stim,566,655200,0.0-6.3-71.3,go_nogo_deval,442,,<img class = center src='/static/experiments/go_nogo_deval/images/green_pentagon.png'></img>,32,850,test,green_pentagon,nogo2,-1,23,3,,,,,,,-1,-1,1400,0,ITI,poldrack-single-stim,567,656602,0.0-6.3-72.3,go_nogo_deval,442,,<div></div>,32,1400,test,,,,,,,,,,,,-1,-1,500,0,fixation,poldrack-single-stim,568,657103,0.0-6.3-73.3,go_nogo_deval,442,,<div class = centerbox><div class = fixation>+</div></div>,none,500,test,,,,,,,,,,,,-1,-1,850,0,stim,poldrack-single-stim,569,657955,0.0-6.3-74.3,go_nogo_deval,442,,<img class = center src='/static/experiments/go_nogo_deval/images/green_pentagon.png'></img>,32,850,test,green_pentagon,nogo2,-1,24,3,,,,,,,-1,-1,1400,0,ITI,poldrack-single-stim,570,659356,0.0-6.3-75.3,go_nogo_deval,442,,<div></div>,32,1400,test,,,,,,,,,,,,-1,-1,500,0,fixation,poldrack-single-stim,571,659858,0.0-6.3-76.3,go_nogo_deval,442,,<div class = centerbox><div class = fixation>+</div></div>,none,500,test,,,,,,,,,,,,369,32,850,0,stim,poldrack-single-stim,572,660708,0.0-6.3-77.3,go_nogo_deval,442,,<img class = center src='/static/experiments/go_nogo_deval/images/blue_triangle.png'></img>,32,850,test,blue_triangle,go1,32,25,3,,,,,,